subject,condition,block,procedure,trial,item,response,RT,time,correct,accuracy
24102902,cl_letter,1,test,0,L,0,,15.7,,
24102902,cl_letter,1,test,1,V,0,,17.43,0.0,1.0
24102902,cl_letter,1,test,2,D,0,,19.15,0.0,1.0
24102902,cl_letter,1,test,3,C,0,,20.87,0.0,1.0
24102902,cl_letter,1,test,4,K,0,,22.6,0.0,1.0
24102902,cl_letter,1,test,5,Z,0,,24.32,0.0,1.0
24102902,cl_letter,1,test,6,Z,0,,26.04,1.0,0.0
24102902,cl_letter,1,test,7,Z,0,,27.77,1.0,0.0
24102902,cl_letter,1,test,8,G,0,,29.49,0.0,1.0
24102902,cl_letter,1,test,9,O,0,,31.22,0.0,1.0
24102902,cl_letter,1,test,10,N,0,,32.94,0.0,1.0
24102902,cl_letter,1,test,11,N,0,,34.66,1.0,0.0
24102902,cl_letter,1,test,12,H,0,,36.39,0.0,1.0
24102902,cl_letter,1,test,13,R,0,,38.11,0.0,1.0
24102902,cl_letter,1,test,14,P,0,,39.83,0.0,1.0
24102902,cl_letter,1,test,15,G,0,,41.56,0.0,1.0
24102902,cl_letter,1,test,16,C,0,,43.28,0.0,1.0
24102902,cl_letter,1,test,17,M,0,,45.0,0.0,1.0
24102902,cl_letter,1,test,18,X,0,,46.73,0.0,1.0
24102902,cl_letter,1,test,19,O,0,,48.45,0.0,1.0
24102902,cl_letter,1,test,20,U,0,,50.18,0.0,1.0
24102902,cl_letter,2,test,0,W,0,,58.94,,
24102902,cl_letter,2,test,1,G,0,,60.66,0.0,1.0
24102902,cl_letter,2,test,2,V,0,,62.39,0.0,1.0
24102902,cl_letter,2,test,3,J,0,,64.11,0.0,1.0
24102902,cl_letter,2,test,4,A,0,,65.84,0.0,1.0
24102902,cl_letter,2,test,5,Z,0,,67.56,0.0,1.0
24102902,cl_letter,2,test,6,H,0,,69.28,0.0,1.0
24102902,cl_letter,2,test,7,X,0,,71.01,0.0,1.0
24102902,cl_letter,2,test,8,U,0,,72.74,0.0,1.0
24102902,cl_letter,2,test,9,N,0,,74.46,0.0,1.0
24102902,cl_letter,2,test,10,I,0,,76.19,0.0,1.0
24102902,cl_letter,2,test,11,G,0,,77.91,0.0,1.0
24102902,cl_letter,2,test,12,V,0,,79.63,0.0,1.0
24102902,cl_letter,2,test,13,T,0,,81.35,0.0,1.0
24102902,cl_letter,2,test,14,C,0,,83.08,0.0,1.0
24102902,cl_letter,2,test,15,Z,0,,84.8,0.0,1.0
24102902,cl_letter,2,test,16,L,0,,86.53,0.0,1.0
24102902,cl_letter,2,test,17,J,0,,88.25,0.0,1.0
24102902,cl_letter,2,test,18,M,0,,89.97,0.0,1.0
24102902,cl_letter,2,test,19,D,0,,91.7,0.0,1.0
24102902,cl_letter,2,test,20,H,0,,93.42,0.0,1.0
24102902,cl_letter,3,test,0,I,0,,101.25,,
24102902,cl_letter,3,test,1,O,0,,102.97,0.0,1.0
24102902,cl_letter,3,test,2,X,0,,104.7,0.0,1.0
24102902,cl_letter,3,test,3,Z,0,,106.42,0.0,1.0
24102902,cl_letter,3,test,4,Z,0,,108.15,1.0,0.0
24102902,cl_letter,3,test,5,V,0,,109.87,0.0,1.0
24102902,cl_letter,3,test,6,C,0,,111.59,0.0,1.0
24102902,cl_letter,3,test,7,S,0,,113.32,0.0,1.0
24102902,cl_letter,3,test,8,K,0,,115.04,0.0,1.0
24102902,cl_letter,3,test,9,P,0,,116.77,0.0,1.0
24102902,cl_letter,3,test,10,F,0,,118.49,0.0,1.0
24102902,cl_letter,3,test,11,G,0,,120.22,0.0,1.0
24102902,cl_letter,3,test,12,R,0,,121.94,0.0,1.0
24102902,cl_letter,3,test,13,Z,0,,123.67,0.0,1.0
24102902,cl_letter,3,test,14,J,0,,125.39,0.0,1.0
24102902,cl_letter,3,test,15,B,0,,127.12,0.0,1.0
24102902,cl_letter,3,test,16,L,0,,128.84,0.0,1.0
24102902,cl_letter,3,test,17,D,0,,130.57,0.0,1.0
24102902,cl_letter,3,test,18,A,0,,132.29,0.0,1.0
24102902,cl_letter,3,test,19,K,0,,134.02,0.0,1.0
24102902,cl_letter,3,test,20,V,0,,135.74,0.0,1.0
24102902,cl_letter,4,test,0,W,0,,142.81,,
24102902,cl_letter,4,test,1,F,0,,144.54,0.0,1.0
24102902,cl_letter,4,test,2,S,0,,146.26,0.0,1.0
24102902,cl_letter,4,test,3,I,0,,147.99,0.0,1.0
24102902,cl_letter,4,test,4,E,0,,149.71,0.0,1.0
24102902,cl_letter,4,test,5,E,0,,151.43,1.0,0.0
24102902,cl_letter,4,test,6,U,0,,153.16,0.0,1.0
24102902,cl_letter,4,test,7,L,0,,154.88,0.0,1.0
24102902,cl_letter,4,test,8,L,0,,156.6,1.0,0.0
24102902,cl_letter,4,test,9,N,0,,158.33,0.0,1.0
24102902,cl_letter,4,test,10,N,0,,160.05,1.0,0.0
24102902,cl_letter,4,test,11,N,0,,161.77,1.0,0.0
24102902,cl_letter,4,test,12,N,0,,163.49,1.0,0.0
24102902,cl_letter,4,test,13,M,0,,165.22,0.0,1.0
24102902,cl_letter,4,test,14,D,0,,166.95,0.0,1.0
24102902,cl_letter,4,test,15,T,0,,168.67,0.0,1.0
24102902,cl_letter,4,test,16,B,0,,170.39,0.0,1.0
24102902,cl_letter,4,test,17,B,0,,172.11,1.0,0.0
24102902,cl_letter,4,test,18,F,0,,173.84,0.0,1.0
24102902,cl_letter,4,test,19,L,0,,175.56,0.0,1.0
24102902,cl_letter,4,test,20,O,0,,177.29,0.0,1.0
24102902,cl_letter,5,test,0,S,0,,185.11,,
24102902,cl_letter,5,test,1,S,0,,186.83,1.0,0.0
24102902,cl_letter,5,test,2,N,0,,188.56,0.0,1.0
24102902,cl_letter,5,test,3,C,0,,190.29,0.0,1.0
24102902,cl_letter,5,test,4,Q,0,,192.01,0.0,1.0
24102902,cl_letter,5,test,5,W,0,,193.74,0.0,1.0
24102902,cl_letter,5,test,6,H,0,,195.46,0.0,1.0
24102902,cl_letter,5,test,7,V,0,,197.19,0.0,1.0
24102902,cl_letter,5,test,8,X,0,,198.91,0.0,1.0
24102902,cl_letter,5,test,9,B,0,,200.64,0.0,1.0
24102902,cl_letter,5,test,10,D,0,,202.36,0.0,1.0
24102902,cl_letter,5,test,11,G,0,,204.09,0.0,1.0
24102902,cl_letter,5,test,12,C,0,,205.81,0.0,1.0
24102902,cl_letter,5,test,13,L,0,,207.54,0.0,1.0
24102902,cl_letter,5,test,14,L,0,,209.26,1.0,0.0
24102902,cl_letter,5,test,15,U,0,,210.98,0.0,1.0
24102902,cl_letter,5,test,16,V,0,,212.71,0.0,1.0
24102902,cl_letter,5,test,17,J,0,,214.43,0.0,1.0
24102902,cl_letter,5,test,18,P,0,,216.16,0.0,1.0
24102902,cl_letter,5,test,19,G,0,,217.88,0.0,1.0
24102902,cl_letter,5,test,20,R,0,,219.6,0.0,1.0
24102902,cl_letter,6,test,0,L,0,,227.77,,
24102902,cl_letter,6,test,1,E,0,,229.49,0.0,1.0
24102902,cl_letter,6,test,2,O,0,,231.22,0.0,1.0
24102902,cl_letter,6,test,3,T,0,,232.94,0.0,1.0
24102902,cl_letter,6,test,4,V,0,,234.66,0.0,1.0
24102902,cl_letter,6,test,5,C,0,,236.39,0.0,1.0
24102902,cl_letter,6,test,6,K,0,,238.11,0.0,1.0
24102902,cl_letter,6,test,7,H,0,,239.84,0.0,1.0
24102902,cl_letter,6,test,8,M,0,,241.56,0.0,1.0
24102902,cl_letter,6,test,9,N,0,,243.29,0.0,1.0
24102902,cl_letter,6,test,10,B,0,,245.01,0.0,1.0
24102902,cl_letter,6,test,11,B,0,,246.74,1.0,0.0
24102902,cl_letter,6,test,12,A,0,,248.46,0.0,1.0
24102902,cl_letter,6,test,13,F,0,,250.18,0.0,1.0
24102902,cl_letter,6,test,14,K,0,,251.91,0.0,1.0
24102902,cl_letter,6,test,15,L,0,,253.63,0.0,1.0
24102902,cl_letter,6,test,16,L,0,,255.35,1.0,0.0
24102902,cl_letter,6,test,17,Z,0,,257.08,0.0,1.0
24102902,cl_letter,6,test,18,E,0,,258.8,0.0,1.0
24102902,cl_letter,6,test,19,R,0,,260.52,0.0,1.0
24102902,cl_letter,6,test,20,P,0,,262.25,0.0,1.0
24102902,cl_letter,7,test,0,F,0,,270.52,,
24102902,cl_letter,7,test,1,K,0,,272.24,0.0,1.0
24102902,cl_letter,7,test,2,W,0,,273.97,0.0,1.0
24102902,cl_letter,7,test,3,N,0,,275.69,0.0,1.0
24102902,cl_letter,7,test,4,Q,0,,277.42,0.0,1.0
24102902,cl_letter,7,test,5,E,0,,279.15,0.0,1.0
24102902,cl_letter,7,test,6,T,0,,280.87,0.0,1.0
24102902,cl_letter,7,test,7,T,0,,282.59,1.0,0.0
24102902,cl_letter,7,test,8,R,0,,284.32,0.0,1.0
24102902,cl_letter,7,test,9,M,0,,286.04,0.0,1.0
24102902,cl_letter,7,test,10,Y,0,,287.76,0.0,1.0
24102902,cl_letter,7,test,11,V,0,,289.49,0.0,1.0
24102902,cl_letter,7,test,12,V,0,,291.21,1.0,0.0
24102902,cl_letter,7,test,13,Q,0,,292.94,0.0,1.0
24102902,cl_letter,7,test,14,F,0,,294.66,0.0,1.0
24102902,cl_letter,7,test,15,J,0,,296.38,0.0,1.0
24102902,cl_letter,7,test,16,I,0,,298.11,0.0,1.0
24102902,cl_letter,7,test,17,Z,0,,299.84,0.0,1.0
24102902,cl_letter,7,test,18,O,0,,301.56,0.0,1.0
24102902,cl_letter,7,test,19,V,0,,303.29,0.0,1.0
24102902,cl_letter,7,test,20,D,0,,305.02,0.0,1.0
24102902,cl_letter,8,test,0,U,0,,312.95,,
24102902,cl_letter,8,test,1,H,0,,314.68,0.0,1.0
24102902,cl_letter,8,test,2,P,0,,316.4,0.0,1.0
24102902,cl_letter,8,test,3,A,0,,318.13,0.0,1.0
24102902,cl_letter,8,test,4,A,0,,319.85,1.0,0.0
24102902,cl_letter,8,test,5,O,0,,321.58,0.0,1.0
24102902,cl_letter,8,test,6,M,0,,323.3,0.0,1.0
24102902,cl_letter,8,test,7,I,0,,325.02,0.0,1.0
24102902,cl_letter,8,test,8,I,0,,326.75,1.0,0.0
24102902,cl_letter,8,test,9,L,0,,328.47,0.0,1.0
24102902,cl_letter,8,test,10,J,0,,330.2,0.0,1.0
24102902,cl_letter,8,test,11,D,0,,331.92,0.0,1.0
24102902,cl_letter,8,test,12,E,0,,333.64,0.0,1.0
24102902,cl_letter,8,test,13,W,0,,335.37,0.0,1.0
24102902,cl_letter,8,test,14,W,0,,337.1,1.0,0.0
24102902,cl_letter,8,test,15,H,0,,338.82,0.0,1.0
24102902,cl_letter,8,test,16,N,0,,340.54,0.0,1.0
24102902,cl_letter,8,test,17,Z,0,,342.27,0.0,1.0
24102902,cl_letter,8,test,18,K,0,,343.99,0.0,1.0
24102902,cl_letter,8,test,19,T,0,,345.72,0.0,1.0
24102902,cl_letter,8,test,20,T,0,,347.44,1.0,0.0
24102902,cl_letter,9,test,0,D,0,,355.79,,
24102902,cl_letter,9,test,1,P,0,,357.52,0.0,1.0
24102902,cl_letter,9,test,2,I,0,,359.24,0.0,1.0
24102902,cl_letter,9,test,3,U,0,,360.97,0.0,1.0
24102902,cl_letter,9,test,4,X,0,,362.69,0.0,1.0
24102902,cl_letter,9,test,5,X,0,,364.42,1.0,0.0
24102902,cl_letter,9,test,6,J,0,,366.14,0.0,1.0
24102902,cl_letter,9,test,7,B,0,,367.86,0.0,1.0
24102902,cl_letter,9,test,8,P,0,,369.59,0.0,1.0
24102902,cl_letter,9,test,9,Y,0,,371.31,0.0,1.0
24102902,cl_letter,9,test,10,Y,0,,373.03,1.0,0.0
24102902,cl_letter,9,test,11,R,0,,374.76,0.0,1.0
24102902,cl_letter,9,test,12,G,0,,376.49,0.0,1.0
24102902,cl_letter,9,test,13,H,0,,378.21,0.0,1.0
24102902,cl_letter,9,test,14,N,0,,379.94,0.0,1.0
24102902,cl_letter,9,test,15,T,0,,381.66,0.0,1.0
24102902,cl_letter,9,test,16,M,0,,383.39,0.0,1.0
24102902,cl_letter,9,test,17,B,0,,385.11,0.0,1.0
24102902,cl_letter,9,test,18,K,0,,386.84,0.0,1.0
24102902,cl_letter,9,test,19,F,0,,388.56,0.0,1.0
24102902,cl_letter,9,test,20,U,0,,390.28,0.0,1.0
24102902,cl_letter,10,test,0,O,0,,397.96,,
24102902,cl_letter,10,test,1,N,0,,399.68,0.0,1.0
24102902,cl_letter,10,test,2,G,0,,401.41,0.0,1.0
24102902,cl_letter,10,test,3,G,0,,403.13,1.0,0.0
24102902,cl_letter,10,test,4,A,0,,404.86,0.0,1.0
24102902,cl_letter,10,test,5,A,0,,406.58,1.0,0.0
24102902,cl_letter,10,test,6,E,0,,408.31,0.0,1.0
24102902,cl_letter,10,test,7,J,0,,410.03,0.0,1.0
24102902,cl_letter,10,test,8,S,0,,411.75,0.0,1.0
24102902,cl_letter,10,test,9,Y,0,,413.48,0.0,1.0
24102902,cl_letter,10,test,10,U,0,,415.2,0.0,1.0
24102902,cl_letter,10,test,11,N,0,,416.92,0.0,1.0
24102902,cl_letter,10,test,12,C,0,,418.65,0.0,1.0
24102902,cl_letter,10,test,13,T,0,,420.37,0.0,1.0
24102902,cl_letter,10,test,14,M,0,,422.1,0.0,1.0
24102902,cl_letter,10,test,15,I,0,,423.83,0.0,1.0
24102902,cl_letter,10,test,16,P,0,,425.55,0.0,1.0
24102902,cl_letter,10,test,17,P,0,,427.27,1.0,0.0
24102902,cl_letter,10,test,18,F,0,,429.0,0.0,1.0
24102902,cl_letter,10,test,19,F,0,,430.72,1.0,0.0
24102902,cl_letter,10,test,20,V,0,,432.44,0.0,1.0
24102902,cl_foods,1,test,0,assets\cl_foods\foods_4.png,0,,708.04,,
24102902,cl_foods,1,test,1,assets\cl_foods\foods_47.png,0,,709.77,0.0,1.0
24102902,cl_foods,1,test,2,assets\cl_foods\foods_47.png,1,0.874,711.5,1.0,1.0
24102902,cl_foods,1,test,3,assets\cl_foods\foods_20.png,0,,713.23,0.0,1.0
24102902,cl_foods,1,test,4,assets\cl_foods\foods_20.png,1,0.72,714.96,1.0,1.0
24102902,cl_foods,1,test,5,assets\cl_foods\foods_82.png,0,,716.68,0.0,1.0
24102902,cl_foods,1,test,6,assets\cl_foods\foods_63.png,0,,718.41,0.0,1.0
24102902,cl_foods,1,test,7,assets\cl_foods\foods_89.png,0,,720.14,0.0,1.0
24102902,cl_foods,1,test,8,assets\cl_foods\foods_39.png,0,,721.87,0.0,1.0
24102902,cl_foods,1,test,9,assets\cl_foods\foods_35.png,0,,723.61,0.0,1.0
24102902,cl_foods,1,test,10,assets\cl_foods\foods_28.png,0,,725.34,0.0,1.0
24102902,cl_foods,1,test,11,assets\cl_foods\foods_51.png,0,,727.07,0.0,1.0
24102902,cl_foods,1,test,12,assets\cl_foods\foods_51.png,1,0.66,728.8,1.0,1.0
24102902,cl_foods,1,test,13,assets\cl_foods\foods_62.png,0,,730.53,0.0,1.0
24102902,cl_foods,1,test,14,assets\cl_foods\foods_66.png,0,,732.26,0.0,1.0
24102902,cl_foods,1,test,15,assets\cl_foods\foods_60.png,0,,733.99,0.0,1.0
24102902,cl_foods,1,test,16,assets\cl_foods\foods_38.png,0,,735.72,0.0,1.0
24102902,cl_foods,1,test,17,assets\cl_foods\foods_21.png,0,,737.45,0.0,1.0
24102902,cl_foods,1,test,18,assets\cl_foods\foods_58.png,0,,739.18,0.0,1.0
24102902,cl_foods,1,test,19,assets\cl_foods\foods_80.png,0,,740.91,0.0,1.0
24102902,cl_foods,1,test,20,assets\cl_foods\foods_56.png,0,,742.64,0.0,1.0
24102902,cl_foods,2,test,0,assets\cl_foods\foods_84.png,0,,750.34,,
24102902,cl_foods,2,test,1,assets\cl_foods\foods_74.png,0,,752.07,0.0,1.0
24102902,cl_foods,2,test,2,assets\cl_foods\foods_12.png,0,,753.8,0.0,1.0
24102902,cl_foods,2,test,3,assets\cl_foods\foods_12.png,1,0.731,755.52,1.0,1.0
24102902,cl_foods,2,test,4,assets\cl_foods\foods_61.png,0,,757.25,0.0,1.0
24102902,cl_foods,2,test,5,assets\cl_foods\foods_24.png,0,,758.99,0.0,1.0
24102902,cl_foods,2,test,6,assets\cl_foods\foods_26.png,0,,760.85,0.0,1.0
24102902,cl_foods,2,test,7,assets\cl_foods\foods_70.png,1,0.988,762.58,0.0,0.0
24102902,cl_foods,2,test,8,assets\cl_foods\foods_67.png,0,,764.31,0.0,1.0
24102902,cl_foods,2,test,9,assets\cl_foods\foods_57.png,0,,766.04,0.0,1.0
24102902,cl_foods,2,test,10,assets\cl_foods\foods_90.png,0,,767.77,0.0,1.0
24102902,cl_foods,2,test,11,assets\cl_foods\foods_69.png,0,,769.51,0.0,1.0
24102902,cl_foods,2,test,12,assets\cl_foods\foods_69.png,1,0.671,771.24,1.0,1.0
24102902,cl_foods,2,test,13,assets\cl_foods\foods_18.png,1,0.784,772.97,0.0,0.0
24102902,cl_foods,2,test,14,assets\cl_foods\foods_87.png,0,,774.7,0.0,1.0
24102902,cl_foods,2,test,15,assets\cl_foods\foods_78.png,0,,776.43,0.0,1.0
24102902,cl_foods,2,test,16,assets\cl_foods\foods_9.png,0,,778.16,0.0,1.0
24102902,cl_foods,2,test,17,assets\cl_foods\foods_9.png,1,0.666,779.88,1.0,1.0
24102902,cl_foods,2,test,18,assets\cl_foods\foods_6.png,1,0.714,781.61,0.0,0.0
24102902,cl_foods,2,test,19,assets\cl_foods\foods_20.png,1,0.849,783.34,0.0,0.0
24102902,cl_foods,2,test,20,assets\cl_foods\foods_41.png,0,,785.14,0.0,1.0
24102902,cl_foods,3,test,0,assets\cl_foods\foods_85.png,0,,792.77,,
24102902,cl_foods,3,test,1,assets\cl_foods\foods_79.png,0,,794.5,0.0,1.0
24102902,cl_foods,3,test,2,assets\cl_foods\foods_50.png,0,,796.23,0.0,1.0
24102902,cl_foods,3,test,3,assets\cl_foods\foods_13.png,0,,797.96,0.0,1.0
24102902,cl_foods,3,test,4,assets\cl_foods\foods_43.png,0,,799.69,0.0,1.0
24102902,cl_foods,3,test,5,assets\cl_foods\foods_53.png,0,,801.42,0.0,1.0
24102902,cl_foods,3,test,6,assets\cl_foods\foods_16.png,0,,803.15,0.0,1.0
24102902,cl_foods,3,test,7,assets\cl_foods\foods_48.png,0,,804.88,0.0,1.0
24102902,cl_foods,3,test,8,assets\cl_foods\foods_3.png,0,,806.61,0.0,1.0
24102902,cl_foods,3,test,9,assets\cl_foods\foods_40.png,0,,808.34,0.0,1.0
24102902,cl_foods,3,test,10,assets\cl_foods\foods_71.png,0,,810.07,0.0,1.0
24102902,cl_foods,3,test,11,assets\cl_foods\foods_44.png,0,,811.8,0.0,1.0
24102902,cl_foods,3,test,12,assets\cl_foods\foods_81.png,0,,813.52,0.0,1.0
24102902,cl_foods,3,test,13,assets\cl_foods\foods_81.png,1,0.488,815.25,1.0,1.0
24102902,cl_foods,3,test,14,assets\cl_foods\foods_23.png,0,,816.99,0.0,1.0
24102902,cl_foods,3,test,15,assets\cl_foods\foods_74.png,0,,818.72,0.0,1.0
24102902,cl_foods,3,test,16,assets\cl_foods\foods_32.png,0,,820.46,0.0,1.0
24102902,cl_foods,3,test,17,assets\cl_foods\foods_42.png,0,,822.19,0.0,1.0
24102902,cl_foods,3,test,18,assets\cl_foods\foods_61.png,0,,823.92,0.0,1.0
24102902,cl_foods,3,test,19,assets\cl_foods\foods_89.png,1,0.104,825.65,0.0,0.0
24102902,cl_foods,3,test,20,assets\cl_foods\foods_70.png,0,,827.37,0.0,1.0
24102902,cl_foods,4,test,0,assets\cl_foods\foods_10.png,0,,834.69,,
24102902,cl_foods,4,test,1,assets\cl_foods\foods_26.png,0,,836.58,0.0,1.0
24102902,cl_foods,4,test,2,assets\cl_foods\foods_77.png,0,,838.31,0.0,1.0
24102902,cl_foods,4,test,3,assets\cl_foods\foods_72.png,0,,840.04,0.0,1.0
24102902,cl_foods,4,test,4,assets\cl_foods\foods_72.png,1,0.549,841.77,1.0,1.0
24102902,cl_foods,4,test,5,assets\cl_foods\foods_72.png,1,0.486,843.5,1.0,1.0
24102902,cl_foods,4,test,6,assets\cl_foods\foods_72.png,1,0.502,845.22,1.0,1.0
24102902,cl_foods,4,test,7,assets\cl_foods\foods_73.png,0,,846.95,0.0,1.0
24102902,cl_foods,4,test,8,assets\cl_foods\foods_28.png,0,,848.68,0.0,1.0
24102902,cl_foods,4,test,9,assets\cl_foods\foods_88.png,0,,850.41,0.0,1.0
24102902,cl_foods,4,test,10,assets\cl_foods\foods_60.png,0,,852.14,0.0,1.0
24102902,cl_foods,4,test,11,assets\cl_foods\foods_9.png,0,,853.87,0.0,1.0
24102902,cl_foods,4,test,12,assets\cl_foods\foods_27.png,0,,855.6,0.0,1.0
24102902,cl_foods,4,test,13,assets\cl_foods\foods_4.png,0,,857.33,0.0,1.0
24102902,cl_foods,4,test,14,assets\cl_foods\foods_37.png,0,,859.06,0.0,1.0
24102902,cl_foods,4,test,15,assets\cl_foods\foods_21.png,0,,860.79,0.0,1.0
24102902,cl_foods,4,test,16,assets\cl_foods\foods_41.png,0,,862.58,0.0,1.0
24102902,cl_foods,4,test,17,assets\cl_foods\foods_55.png,0,,864.32,0.0,1.0
24102902,cl_foods,4,test,18,assets\cl_foods\foods_31.png,0,,866.05,0.0,1.0
24102902,cl_foods,4,test,19,assets\cl_foods\foods_17.png,0,,867.78,0.0,1.0
24102902,cl_foods,4,test,20,assets\cl_foods\foods_68.png,0,,869.51,0.0,1.0
24102902,cl_foods,5,test,0,assets\cl_foods\foods_35.png,0,,876.97,,
24102902,cl_foods,5,test,1,assets\cl_foods\foods_29.png,0,,878.7,0.0,1.0
24102902,cl_foods,5,test,2,assets\cl_foods\foods_79.png,0,,880.42,0.0,1.0
24102902,cl_foods,5,test,3,assets\cl_foods\foods_84.png,0,,882.16,0.0,1.0
24102902,cl_foods,5,test,4,assets\cl_foods\foods_56.png,0,,883.88,0.0,1.0
24102902,cl_foods,5,test,5,assets\cl_foods\foods_56.png,1,0.666,885.61,1.0,1.0
24102902,cl_foods,5,test,6,assets\cl_foods\foods_12.png,0,,887.34,0.0,1.0
24102902,cl_foods,5,test,7,assets\cl_foods\foods_38.png,0,,889.07,0.0,1.0
24102902,cl_foods,5,test,8,assets\cl_foods\foods_38.png,1,0.471,890.8,1.0,1.0
24102902,cl_foods,5,test,9,assets\cl_foods\foods_1.png,0,,892.53,0.0,1.0
24102902,cl_foods,5,test,10,assets\cl_foods\foods_23.png,0,,894.26,0.0,1.0
24102902,cl_foods,5,test,11,assets\cl_foods\foods_81.png,1,0.103,895.99,0.0,0.0
24102902,cl_foods,5,test,12,assets\cl_foods\foods_52.png,0,,897.73,0.0,1.0
24102902,cl_foods,5,test,13,assets\cl_foods\foods_19.png,0,,899.45,0.0,1.0
24102902,cl_foods,5,test,14,assets\cl_foods\foods_39.png,0,,901.18,0.0,1.0
24102902,cl_foods,5,test,15,assets\cl_foods\foods_45.png,0,,902.91,0.0,1.0
24102902,cl_foods,5,test,16,assets\cl_foods\foods_2.png,0,,904.64,0.0,1.0
24102902,cl_foods,5,test,17,assets\cl_foods\foods_7.png,1,0.82,906.37,0.0,0.0
24102902,cl_foods,5,test,18,assets\cl_foods\foods_7.png,1,0.5,908.1,1.0,1.0
24102902,cl_foods,5,test,19,assets\cl_foods\foods_30.png,0,,909.83,0.0,1.0
24102902,cl_foods,5,test,20,assets\cl_foods\foods_89.png,0,,911.55,0.0,1.0
24102902,cl_foods,6,test,0,assets\cl_foods\foods_3.png,0,,919.1,,
24102902,cl_foods,6,test,1,assets\cl_foods\foods_13.png,0,,920.83,0.0,1.0
24102902,cl_foods,6,test,2,assets\cl_foods\foods_82.png,0,,922.56,0.0,1.0
24102902,cl_foods,6,test,3,assets\cl_foods\foods_50.png,0,,924.29,0.0,1.0
24102902,cl_foods,6,test,4,assets\cl_foods\foods_80.png,0,,926.02,0.0,1.0
24102902,cl_foods,6,test,5,assets\cl_foods\foods_24.png,0,,927.75,0.0,1.0
24102902,cl_foods,6,test,6,assets\cl_foods\foods_25.png,0,,929.56,0.0,1.0
24102902,cl_foods,6,test,7,assets\cl_foods\foods_25.png,1,0.64,931.34,1.0,1.0
24102902,cl_foods,6,test,8,assets\cl_foods\foods_25.png,1,0.45,933.12,1.0,1.0
24102902,cl_foods,6,test,9,assets\cl_foods\foods_48.png,0,,934.85,0.0,1.0
24102902,cl_foods,6,test,10,assets\cl_foods\foods_48.png,1,0.695,936.58,1.0,1.0
24102902,cl_foods,6,test,11,assets\cl_foods\foods_48.png,1,0.534,938.31,1.0,1.0
24102902,cl_foods,6,test,12,assets\cl_foods\foods_48.png,1,0.446,940.04,1.0,1.0
24102902,cl_foods,6,test,13,assets\cl_foods\foods_74.png,0,,941.77,0.0,1.0
24102902,cl_foods,6,test,14,assets\cl_foods\foods_53.png,0,,943.5,0.0,1.0
24102902,cl_foods,6,test,15,assets\cl_foods\foods_32.png,0,,945.23,0.0,1.0
24102902,cl_foods,6,test,16,assets\cl_foods\foods_87.png,0,,946.96,0.0,1.0
24102902,cl_foods,6,test,17,assets\cl_foods\foods_26.png,0,,948.85,0.0,1.0
24102902,cl_foods,6,test,18,assets\cl_foods\foods_28.png,0,,950.58,0.0,1.0
24102902,cl_foods,6,test,19,assets\cl_foods\foods_49.png,0,,952.31,0.0,1.0
24102902,cl_foods,6,test,20,assets\cl_foods\foods_5.png,0,,954.04,0.0,1.0
24102902,cl_foods,7,test,0,assets\cl_foods\foods_31.png,0,,962.33,,
24102902,cl_foods,7,test,1,assets\cl_foods\foods_36.png,0,,964.06,0.0,1.0
24102902,cl_foods,7,test,2,assets\cl_foods\foods_36.png,1,0.414,965.78,1.0,1.0
24102902,cl_foods,7,test,3,assets\cl_foods\foods_69.png,0,,967.52,0.0,1.0
24102902,cl_foods,7,test,4,assets\cl_foods\foods_40.png,0,,969.24,0.0,1.0
24102902,cl_foods,7,test,5,assets\cl_foods\foods_78.png,0,,970.98,0.0,1.0
24102902,cl_foods,7,test,6,assets\cl_foods\foods_29.png,0,,972.7,0.0,1.0
24102902,cl_foods,7,test,7,assets\cl_foods\foods_51.png,0,,974.44,0.0,1.0
24102902,cl_foods,7,test,8,assets\cl_foods\foods_73.png,0,,976.17,0.0,1.0
24102902,cl_foods,7,test,9,assets\cl_foods\foods_34.png,0,,977.89,0.0,1.0
24102902,cl_foods,7,test,10,assets\cl_foods\foods_8.png,0,,979.63,0.0,1.0
24102902,cl_foods,7,test,11,assets\cl_foods\foods_39.png,0,,981.36,0.0,1.0
24102902,cl_foods,7,test,12,assets\cl_foods\foods_21.png,0,,983.09,0.0,1.0
24102902,cl_foods,7,test,13,assets\cl_foods\foods_72.png,0,,984.82,0.0,1.0
24102902,cl_foods,7,test,14,assets\cl_foods\foods_63.png,0,,986.54,0.0,1.0
24102902,cl_foods,7,test,15,assets\cl_foods\foods_46.png,0,,988.27,0.0,1.0
24102902,cl_foods,7,test,16,assets\cl_foods\foods_41.png,0,,990.07,0.0,1.0
24102902,cl_foods,7,test,17,assets\cl_foods\foods_90.png,0,,991.8,0.0,1.0
24102902,cl_foods,7,test,18,assets\cl_foods\foods_76.png,1,0.929,993.53,0.0,0.0
24102902,cl_foods,7,test,19,assets\cl_foods\foods_52.png,0,,995.26,0.0,1.0
24102902,cl_foods,7,test,20,assets\cl_foods\foods_83.png,1,0.103,996.99,0.0,0.0
24102902,cl_foods,8,test,0,assets\cl_foods\foods_47.png,0,,1004.3,,
24102902,cl_foods,8,test,1,assets\cl_foods\foods_65.png,0,,1006.03,0.0,1.0
24102902,cl_foods,8,test,2,assets\cl_foods\foods_65.png,1,0.761,1007.76,1.0,1.0
24102902,cl_foods,8,test,3,assets\cl_foods\foods_81.png,0,,1009.49,0.0,1.0
24102902,cl_foods,8,test,4,assets\cl_foods\foods_15.png,0,,1011.22,0.0,1.0
24102902,cl_foods,8,test,5,assets\cl_foods\foods_71.png,0,,1012.95,0.0,1.0
24102902,cl_foods,8,test,6,assets\cl_foods\foods_22.png,0,,1014.68,0.0,1.0
24102902,cl_foods,8,test,7,assets\cl_foods\foods_61.png,0,,1016.41,0.0,1.0
24102902,cl_foods,8,test,8,assets\cl_foods\foods_53.png,0,,1018.14,0.0,1.0
24102902,cl_foods,8,test,9,assets\cl_foods\foods_45.png,0,,1019.87,0.0,1.0
24102902,cl_foods,8,test,10,assets\cl_foods\foods_88.png,0,,1021.6,0.0,1.0
24102902,cl_foods,8,test,11,assets\cl_foods\foods_85.png,0,,1023.38,0.0,1.0
24102902,cl_foods,8,test,12,assets\cl_foods\foods_48.png,0,,1025.11,0.0,1.0
24102902,cl_foods,8,test,13,assets\cl_foods\foods_20.png,0,,1026.84,0.0,1.0
24102902,cl_foods,8,test,14,assets\cl_foods\foods_68.png,0,,1028.57,0.0,1.0
24102902,cl_foods,8,test,15,assets\cl_foods\foods_66.png,0,,1030.3,0.0,1.0
24102902,cl_foods,8,test,16,assets\cl_foods\foods_66.png,1,0.76,1032.03,1.0,1.0
24102902,cl_foods,8,test,17,assets\cl_foods\foods_54.png,0,,1033.76,0.0,1.0
24102902,cl_foods,8,test,18,assets\cl_foods\foods_55.png,0,,1035.49,0.0,1.0
24102902,cl_foods,8,test,19,assets\cl_foods\foods_25.png,0,,1037.3,0.0,1.0
24102902,cl_foods,8,test,20,assets\cl_foods\foods_12.png,0,,1039.03,0.0,1.0
24102902,cl_foods,9,test,0,assets\cl_foods\foods_51.png,0,,1046.98,,
24102902,cl_foods,9,test,1,assets\cl_foods\foods_33.png,0,,1048.71,0.0,1.0
24102902,cl_foods,9,test,2,assets\cl_foods\foods_2.png,0,,1050.44,0.0,1.0
24102902,cl_foods,9,test,3,assets\cl_foods\foods_62.png,0,,1052.17,0.0,1.0
24102902,cl_foods,9,test,4,assets\cl_foods\foods_16.png,0,,1053.89,0.0,1.0
24102902,cl_foods,9,test,5,assets\cl_foods\foods_8.png,0,,1055.63,0.0,1.0
24102902,cl_foods,9,test,6,assets\cl_foods\foods_31.png,0,,1057.36,0.0,1.0
24102902,cl_foods,9,test,7,assets\cl_foods\foods_30.png,0,,1059.09,0.0,1.0
24102902,cl_foods,9,test,8,assets\cl_foods\foods_32.png,0,,1060.83,0.0,1.0
24102902,cl_foods,9,test,9,assets\cl_foods\foods_80.png,0,,1062.56,0.0,1.0
24102902,cl_foods,9,test,10,assets\cl_foods\foods_42.png,0,,1064.29,0.0,1.0
24102902,cl_foods,9,test,11,assets\cl_foods\foods_63.png,0,,1066.01,0.0,1.0
24102902,cl_foods,9,test,12,assets\cl_foods\foods_17.png,0,,1067.74,0.0,1.0
24102902,cl_foods,9,test,13,assets\cl_foods\foods_17.png,1,0.54,1069.47,1.0,1.0
24102902,cl_foods,9,test,14,assets\cl_foods\foods_28.png,0,,1071.2,0.0,1.0
24102902,cl_foods,9,test,15,assets\cl_foods\foods_87.png,0,,1072.94,0.0,1.0
24102902,cl_foods,9,test,16,assets\cl_foods\foods_7.png,0,,1074.67,0.0,1.0
24102902,cl_foods,9,test,17,assets\cl_foods\foods_10.png,0,,1076.4,0.0,1.0
24102902,cl_foods,9,test,18,assets\cl_foods\foods_59.png,0,,1078.13,0.0,1.0
24102902,cl_foods,9,test,19,assets\cl_foods\foods_14.png,0,,1079.87,0.0,1.0
24102902,cl_foods,9,test,20,assets\cl_foods\foods_14.png,1,0.538,1081.6,1.0,1.0
24102902,cl_foods,10,test,0,assets\cl_foods\foods_60.png,0,,1089.76,,
24102902,cl_foods,10,test,1,assets\cl_foods\foods_47.png,0,,1091.5,0.0,1.0
24102902,cl_foods,10,test,2,assets\cl_foods\foods_86.png,0,,1093.23,0.0,1.0
24102902,cl_foods,10,test,3,assets\cl_foods\foods_6.png,0,,1094.96,0.0,1.0
24102902,cl_foods,10,test,4,assets\cl_foods\foods_24.png,0,,1096.7,0.0,1.0
24102902,cl_foods,10,test,5,assets\cl_foods\foods_48.png,0,,1098.43,0.0,1.0
24102902,cl_foods,10,test,6,assets\cl_foods\foods_48.png,1,0.708,1100.15,1.0,1.0
24102902,cl_foods,10,test,7,assets\cl_foods\foods_73.png,0,,1101.88,0.0,1.0
24102902,cl_foods,10,test,8,assets\cl_foods\foods_66.png,0,,1103.61,0.0,1.0
24102902,cl_foods,10,test,9,assets\cl_foods\foods_41.png,1,0.103,1105.41,0.0,0.0
24102902,cl_foods,10,test,10,assets\cl_foods\foods_75.png,0,,1107.14,0.0,1.0
24102902,cl_foods,10,test,11,assets\cl_foods\foods_22.png,0,,1108.87,0.0,1.0
24102902,cl_foods,10,test,12,assets\cl_foods\foods_38.png,0,,1110.6,0.0,1.0
24102902,cl_foods,10,test,13,assets\cl_foods\foods_67.png,0,,1112.33,0.0,1.0
24102902,cl_foods,10,test,14,assets\cl_foods\foods_27.png,0,,1114.06,0.0,1.0
24102902,cl_foods,10,test,15,assets\cl_foods\foods_36.png,0,,1115.78,0.0,1.0
24102902,cl_foods,10,test,16,assets\cl_foods\foods_58.png,0,,1117.51,0.0,1.0
24102902,cl_foods,10,test,17,assets\cl_foods\foods_65.png,0,,1119.24,0.0,1.0
24102902,cl_foods,10,test,18,assets\cl_foods\foods_81.png,0,,1120.97,0.0,1.0
24102902,cl_foods,10,test,19,assets\cl_foods\foods_2.png,0,,1122.7,0.0,1.0
24102902,cl_foods,10,test,20,assets\cl_foods\foods_20.png,0,,1124.43,0.0,1.0
24102902,cl_animals,1,test,0,assets\cl_animals\animals_87.png,0,,1139.32,,
24102902,cl_animals,1,test,1,assets\cl_animals\animals_10.png,0,,1141.05,0.0,1.0
24102902,cl_animals,1,test,2,assets\cl_animals\animals_57.png,0,,1142.78,0.0,1.0
24102902,cl_animals,1,test,3,assets\cl_animals\animals_85.png,0,,1144.51,0.0,1.0
24102902,cl_animals,1,test,4,assets\cl_animals\animals_83.png,0,,1146.23,0.0,1.0
24102902,cl_animals,1,test,5,assets\cl_animals\animals_40.png,0,,1147.96,0.0,1.0
24102902,cl_animals,1,test,6,assets\cl_animals\animals_7.png,0,,1149.69,0.0,1.0
24102902,cl_animals,1,test,7,assets\cl_animals\animals_60.png,0,,1151.42,0.0,1.0
24102902,cl_animals,1,test,8,assets\cl_animals\animals_60.png,1,0.718,1153.15,1.0,1.0
24102902,cl_animals,1,test,9,assets\cl_animals\animals_37.png,0,,1154.88,0.0,1.0
24102902,cl_animals,1,test,10,assets\cl_animals\animals_2.png,0,,1156.61,0.0,1.0
24102902,cl_animals,1,test,11,assets\cl_animals\animals_76.png,0,,1158.34,0.0,1.0
24102902,cl_animals,1,test,12,assets\cl_animals\animals_64.png,0,,1160.07,0.0,1.0
24102902,cl_animals,1,test,13,assets\cl_animals\animals_11.png,0,,1161.8,0.0,1.0
24102902,cl_animals,1,test,14,assets\cl_animals\animals_69.png,0,,1163.53,0.0,1.0
24102902,cl_animals,1,test,15,assets\cl_animals\animals_38.png,0,,1165.26,0.0,1.0
24102902,cl_animals,1,test,16,assets\cl_animals\animals_26.png,0,,1166.99,0.0,1.0
24102902,cl_animals,1,test,17,assets\cl_animals\animals_16.png,0,,1168.71,0.0,1.0
24102902,cl_animals,1,test,18,assets\cl_animals\animals_66.png,0,,1170.44,0.0,1.0
24102902,cl_animals,1,test,19,assets\cl_animals\animals_13.png,0,,1172.17,0.0,1.0
24102902,cl_animals,1,test,20,assets\cl_animals\animals_15.png,0,,1173.9,0.0,1.0
24102902,cl_animals,2,test,0,assets\cl_animals\animals_54.png,0,,1184.43,,
24102902,cl_animals,2,test,1,assets\cl_animals\animals_61.png,0,,1186.16,0.0,1.0
24102902,cl_animals,2,test,2,assets\cl_animals\animals_25.png,0,,1187.89,0.0,1.0
24102902,cl_animals,2,test,3,assets\cl_animals\animals_45.png,0,,1189.62,0.0,1.0
24102902,cl_animals,2,test,4,assets\cl_animals\animals_52.png,0,,1191.35,0.0,1.0
24102902,cl_animals,2,test,5,assets\cl_animals\animals_68.png,0,,1193.07,0.0,1.0
24102902,cl_animals,2,test,6,assets\cl_animals\animals_65.png,0,,1194.8,0.0,1.0
24102902,cl_animals,2,test,7,assets\cl_animals\animals_79.png,0,,1196.53,0.0,1.0
24102902,cl_animals,2,test,8,assets\cl_animals\animals_42.png,0,,1198.26,0.0,1.0
24102902,cl_animals,2,test,9,assets\cl_animals\animals_23.png,1,0.96,1199.99,0.0,0.0
24102902,cl_animals,2,test,10,assets\cl_animals\animals_78.png,1,0.856,1201.72,0.0,0.0
24102902,cl_animals,2,test,11,assets\cl_animals\animals_46.png,0,,1203.45,0.0,1.0
24102902,cl_animals,2,test,12,assets\cl_animals\animals_31.png,0,,1205.17,0.0,1.0
24102902,cl_animals,2,test,13,assets\cl_animals\animals_1.png,0,,1206.9,0.0,1.0
24102902,cl_animals,2,test,14,assets\cl_animals\animals_14.png,0,,1208.63,0.0,1.0
24102902,cl_animals,2,test,15,assets\cl_animals\animals_87.png,1,0.843,1210.36,0.0,0.0
24102902,cl_animals,2,test,16,assets\cl_animals\animals_85.png,0,,1212.09,0.0,1.0
24102902,cl_animals,2,test,17,assets\cl_animals\animals_80.png,0,,1213.82,0.0,1.0
24102902,cl_animals,2,test,18,assets\cl_animals\animals_81.png,0,,1215.55,0.0,1.0
24102902,cl_animals,2,test,19,assets\cl_animals\animals_12.png,0,,1217.27,0.0,1.0
24102902,cl_animals,2,test,20,assets\cl_animals\animals_17.png,0,,1219.0,0.0,1.0
24102902,cl_animals,3,test,0,assets\cl_animals\animals_86.png,0,,1226.6,,
24102902,cl_animals,3,test,1,assets\cl_animals\animals_20.png,0,,1228.32,0.0,1.0
24102902,cl_animals,3,test,2,assets\cl_animals\animals_19.png,0,,1230.05,0.0,1.0
24102902,cl_animals,3,test,3,assets\cl_animals\animals_57.png,0,,1231.78,0.0,1.0
24102902,cl_animals,3,test,4,assets\cl_animals\animals_57.png,1,0.937,1233.51,1.0,1.0
24102902,cl_animals,3,test,5,assets\cl_animals\animals_53.png,0,,1235.24,0.0,1.0
24102902,cl_animals,3,test,6,assets\cl_animals\animals_26.png,0,,1236.96,0.0,1.0
24102902,cl_animals,3,test,7,assets\cl_animals\animals_77.png,0,,1238.69,0.0,1.0
24102902,cl_animals,3,test,8,assets\cl_animals\animals_44.png,0,,1240.42,0.0,1.0
24102902,cl_animals,3,test,9,assets\cl_animals\animals_49.png,0,,1242.15,0.0,1.0
24102902,cl_animals,3,test,10,assets\cl_animals\animals_39.png,0,,1243.88,0.0,1.0
24102902,cl_animals,3,test,11,assets\cl_animals\animals_8.png,0,,1245.61,0.0,1.0
24102902,cl_animals,3,test,12,assets\cl_animals\animals_16.png,0,,1247.33,0.0,1.0
24102902,cl_animals,3,test,13,assets\cl_animals\animals_41.png,0,,1249.06,0.0,1.0
24102902,cl_animals,3,test,14,assets\cl_animals\animals_51.png,0,,1250.79,0.0,1.0
24102902,cl_animals,3,test,15,assets\cl_animals\animals_11.png,0,,1252.52,0.0,1.0
24102902,cl_animals,3,test,16,assets\cl_animals\animals_66.png,0,,1254.25,0.0,1.0
24102902,cl_animals,3,test,17,assets\cl_animals\animals_71.png,0,,1255.97,0.0,1.0
24102902,cl_animals,3,test,18,assets\cl_animals\animals_64.png,0,,1257.7,0.0,1.0
24102902,cl_animals,3,test,19,assets\cl_animals\animals_64.png,0,,1259.43,1.0,0.0
24102902,cl_animals,3,test,20,assets\cl_animals\animals_54.png,0,,1261.16,0.0,1.0
24102902,cl_animals,4,test,0,assets\cl_animals\animals_75.png,0,,1268.87,,
24102902,cl_animals,4,test,1,assets\cl_animals\animals_10.png,0,,1270.59,0.0,1.0
24102902,cl_animals,4,test,2,assets\cl_animals\animals_56.png,0,,1272.32,0.0,1.0
24102902,cl_animals,4,test,3,assets\cl_animals\animals_7.png,0,,1274.05,0.0,1.0
24102902,cl_animals,4,test,4,assets\cl_animals\animals_4.png,0,,1275.77,0.0,1.0
24102902,cl_animals,4,test,5,assets\cl_animals\animals_30.png,0,,1277.5,0.0,1.0
24102902,cl_animals,4,test,6,assets\cl_animals\animals_60.png,0,,1279.23,0.0,1.0
24102902,cl_animals,4,test,7,assets\cl_animals\animals_29.png,0,,1280.96,0.0,1.0
24102902,cl_animals,4,test,8,assets\cl_animals\animals_33.png,0,,1282.68,0.0,1.0
24102902,cl_animals,4,test,9,assets\cl_animals\animals_78.png,0,,1284.41,0.0,1.0
24102902,cl_animals,4,test,10,assets\cl_animals\animals_78.png,1,0.561,1286.14,1.0,1.0
24102902,cl_animals,4,test,11,assets\cl_animals\animals_2.png,0,,1287.87,0.0,1.0
24102902,cl_animals,4,test,12,assets\cl_animals\animals_38.png,0,,1289.6,0.0,1.0
24102902,cl_animals,4,test,13,assets\cl_animals\animals_3.png,0,,1291.33,0.0,1.0
24102902,cl_animals,4,test,14,assets\cl_animals\animals_55.png,0,,1293.06,0.0,1.0
24102902,cl_animals,4,test,15,assets\cl_animals\animals_81.png,0,,1294.79,0.0,1.0
24102902,cl_animals,4,test,16,assets\cl_animals\animals_42.png,0,,1296.51,0.0,1.0
24102902,cl_animals,4,test,17,assets\cl_animals\animals_53.png,0,,1298.24,0.0,1.0
24102902,cl_animals,4,test,18,assets\cl_animals\animals_53.png,1,0.67,1299.97,1.0,1.0
24102902,cl_animals,4,test,19,assets\cl_animals\animals_80.png,0,,1301.69,0.0,1.0
24102902,cl_animals,4,test,20,assets\cl_animals\animals_47.png,0,,1303.42,0.0,1.0
24102902,cl_animals,5,test,0,assets\cl_animals\animals_31.png,0,,1311.31,,
24102902,cl_animals,5,test,1,assets\cl_animals\animals_34.png,0,,1313.04,0.0,1.0
24102902,cl_animals,5,test,2,assets\cl_animals\animals_88.png,0,,1314.76,0.0,1.0
24102902,cl_animals,5,test,3,assets\cl_animals\animals_13.png,0,,1316.49,0.0,1.0
24102902,cl_animals,5,test,4,assets\cl_animals\animals_39.png,0,,1318.22,0.0,1.0
24102902,cl_animals,5,test,5,assets\cl_animals\animals_90.png,0,,1319.95,0.0,1.0
24102902,cl_animals,5,test,6,assets\cl_animals\animals_14.png,0,,1321.68,0.0,1.0
24102902,cl_animals,5,test,7,assets\cl_animals\animals_52.png,0,,1323.4,0.0,1.0
24102902,cl_animals,5,test,8,assets\cl_animals\animals_37.png,0,,1325.13,0.0,1.0
24102902,cl_animals,5,test,9,assets\cl_animals\animals_19.png,0,,1326.85,0.0,1.0
24102902,cl_animals,5,test,10,assets\cl_animals\animals_86.png,0,,1328.58,0.0,1.0
24102902,cl_animals,5,test,11,assets\cl_animals\animals_58.png,0,,1330.31,0.0,1.0
24102902,cl_animals,5,test,12,assets\cl_animals\animals_51.png,0,,1332.04,0.0,1.0
24102902,cl_animals,5,test,13,assets\cl_animals\animals_17.png,0,,1333.77,0.0,1.0
24102902,cl_animals,5,test,14,assets\cl_animals\animals_77.png,0,,1335.5,0.0,1.0
24102902,cl_animals,5,test,15,assets\cl_animals\animals_10.png,0,,1337.22,0.0,1.0
24102902,cl_animals,5,test,16,assets\cl_animals\animals_36.png,1,0.104,1338.95,0.0,0.0
24102902,cl_animals,5,test,17,assets\cl_animals\animals_50.png,0,,1340.68,0.0,1.0
24102902,cl_animals,5,test,18,assets\cl_animals\animals_30.png,0,,1342.41,0.0,1.0
24102902,cl_animals,5,test,19,assets\cl_animals\animals_74.png,0,,1344.14,0.0,1.0
24102902,cl_animals,5,test,20,assets\cl_animals\animals_22.png,0,,1345.87,0.0,1.0
24102902,cl_animals,6,test,0,assets\cl_animals\animals_67.png,0,,1353.91,,
24102902,cl_animals,6,test,1,assets\cl_animals\animals_25.png,0,,1355.63,0.0,1.0
24102902,cl_animals,6,test,2,assets\cl_animals\animals_70.png,0,,1357.36,0.0,1.0
24102902,cl_animals,6,test,3,assets\cl_animals\animals_33.png,0,,1359.09,0.0,1.0
24102902,cl_animals,6,test,4,assets\cl_animals\animals_23.png,0,,1360.82,0.0,1.0
24102902,cl_animals,6,test,5,assets\cl_animals\animals_15.png,0,,1362.55,0.0,1.0
24102902,cl_animals,6,test,6,assets\cl_animals\animals_1.png,0,,1364.28,0.0,1.0
24102902,cl_animals,6,test,7,assets\cl_animals\animals_3.png,0,,1366.0,0.0,1.0
24102902,cl_animals,6,test,8,assets\cl_animals\animals_63.png,0,,1367.73,0.0,1.0
24102902,cl_animals,6,test,9,assets\cl_animals\animals_4.png,0,,1369.46,0.0,1.0
24102902,cl_animals,6,test,10,assets\cl_animals\animals_27.png,0,,1371.19,0.0,1.0
24102902,cl_animals,6,test,11,assets\cl_animals\animals_42.png,0,,1372.92,0.0,1.0
24102902,cl_animals,6,test,12,assets\cl_animals\animals_48.png,0,,1374.65,0.0,1.0
24102902,cl_animals,6,test,13,assets\cl_animals\animals_48.png,1,0.559,1376.37,1.0,1.0
24102902,cl_animals,6,test,14,assets\cl_animals\animals_21.png,0,,1378.1,0.0,1.0
24102902,cl_animals,6,test,15,assets\cl_animals\animals_79.png,0,,1379.83,0.0,1.0
24102902,cl_animals,6,test,16,assets\cl_animals\animals_79.png,1,0.564,1381.56,1.0,1.0
24102902,cl_animals,6,test,17,assets\cl_animals\animals_79.png,1,0.517,1383.29,1.0,1.0
24102902,cl_animals,6,test,18,assets\cl_animals\animals_35.png,0,,1385.02,0.0,1.0
24102902,cl_animals,6,test,19,assets\cl_animals\animals_47.png,0,,1386.75,0.0,1.0
24102902,cl_animals,6,test,20,assets\cl_animals\animals_12.png,0,,1388.48,0.0,1.0
24102902,cl_animals,7,test,0,assets\cl_animals\animals_72.png,0,,1396.06,,
24102902,cl_animals,7,test,1,assets\cl_animals\animals_65.png,0,,1397.79,0.0,1.0
24102902,cl_animals,7,test,2,assets\cl_animals\animals_2.png,0,,1399.52,0.0,1.0
24102902,cl_animals,7,test,3,assets\cl_animals\animals_39.png,0,,1401.25,0.0,1.0
24102902,cl_animals,7,test,4,assets\cl_animals\animals_24.png,0,,1402.98,0.0,1.0
24102902,cl_animals,7,test,5,assets\cl_animals\animals_5.png,0,,1404.71,0.0,1.0
24102902,cl_animals,7,test,6,assets\cl_animals\animals_28.png,0,,1406.43,0.0,1.0
24102902,cl_animals,7,test,7,assets\cl_animals\animals_83.png,0,,1408.16,0.0,1.0
24102902,cl_animals,7,test,8,assets\cl_animals\animals_85.png,0,,1409.89,0.0,1.0
24102902,cl_animals,7,test,9,assets\cl_animals\animals_64.png,0,,1411.62,0.0,1.0
24102902,cl_animals,7,test,10,assets\cl_animals\animals_19.png,0,,1413.35,0.0,1.0
24102902,cl_animals,7,test,11,assets\cl_animals\animals_19.png,1,0.535,1415.08,1.0,1.0
24102902,cl_animals,7,test,12,assets\cl_animals\animals_38.png,0,,1416.81,0.0,1.0
24102902,cl_animals,7,test,13,assets\cl_animals\animals_69.png,0,,1418.54,0.0,1.0
24102902,cl_animals,7,test,14,assets\cl_animals\animals_82.png,0,,1420.26,0.0,1.0
24102902,cl_animals,7,test,15,assets\cl_animals\animals_10.png,0,,1421.99,0.0,1.0
24102902,cl_animals,7,test,16,assets\cl_animals\animals_10.png,1,0.437,1423.72,1.0,1.0
24102902,cl_animals,7,test,17,assets\cl_animals\animals_58.png,1,0.724,1425.45,0.0,0.0
24102902,cl_animals,7,test,18,assets\cl_animals\animals_76.png,0,,1427.18,0.0,1.0
24102902,cl_animals,7,test,19,assets\cl_animals\animals_46.png,0,,1428.91,0.0,1.0
24102902,cl_animals,7,test,20,assets\cl_animals\animals_6.png,0,,1430.64,0.0,1.0
24102902,cl_animals,8,test,0,assets\cl_animals\animals_45.png,0,,1438.65,,
24102902,cl_animals,8,test,1,assets\cl_animals\animals_15.png,0,,1440.38,0.0,1.0
24102902,cl_animals,8,test,2,assets\cl_animals\animals_50.png,0,,1442.11,0.0,1.0
24102902,cl_animals,8,test,3,assets\cl_animals\animals_68.png,0,,1443.84,0.0,1.0
24102902,cl_animals,8,test,4,assets\cl_animals\animals_68.png,1,0.745,1445.57,1.0,1.0
24102902,cl_animals,8,test,5,assets\cl_animals\animals_81.png,0,,1447.3,0.0,1.0
24102902,cl_animals,8,test,6,assets\cl_animals\animals_8.png,0,,1449.03,0.0,1.0
24102902,cl_animals,8,test,7,assets\cl_animals\animals_20.png,0,,1450.75,0.0,1.0
24102902,cl_animals,8,test,8,assets\cl_animals\animals_27.png,0,,1452.48,0.0,1.0
24102902,cl_animals,8,test,9,assets\cl_animals\animals_62.png,0,,1454.22,0.0,1.0
24102902,cl_animals,8,test,10,assets\cl_animals\animals_21.png,0,,1455.94,0.0,1.0
24102902,cl_animals,8,test,11,assets\cl_animals\animals_43.png,0,,1457.68,0.0,1.0
24102902,cl_animals,8,test,12,assets\cl_animals\animals_43.png,1,0.474,1459.4,1.0,1.0
24102902,cl_animals,8,test,13,assets\cl_animals\animals_36.png,0,,1461.14,0.0,1.0
24102902,cl_animals,8,test,14,assets\cl_animals\animals_86.png,0,,1462.86,0.0,1.0
24102902,cl_animals,8,test,15,assets\cl_animals\animals_9.png,0,,1464.59,0.0,1.0
24102902,cl_animals,8,test,16,assets\cl_animals\animals_72.png,1,0.717,1466.32,0.0,0.0
24102902,cl_animals,8,test,17,assets\cl_animals\animals_75.png,0,,1468.05,0.0,1.0
24102902,cl_animals,8,test,18,assets\cl_animals\animals_78.png,0,,1469.78,0.0,1.0
24102902,cl_animals,8,test,19,assets\cl_animals\animals_41.png,0,,1471.51,0.0,1.0
24102902,cl_animals,8,test,20,assets\cl_animals\animals_2.png,0,,1473.24,0.0,1.0
24102902,cl_animals,9,test,0,assets\cl_animals\animals_40.png,0,,1481.74,,
24102902,cl_animals,9,test,1,assets\cl_animals\animals_17.png,0,,1483.46,0.0,1.0
24102902,cl_animals,9,test,2,assets\cl_animals\animals_88.png,0,,1485.19,0.0,1.0
24102902,cl_animals,9,test,3,assets\cl_animals\animals_3.png,0,,1486.92,0.0,1.0
24102902,cl_animals,9,test,4,assets\cl_animals\animals_29.png,0,,1488.65,0.0,1.0
24102902,cl_animals,9,test,5,assets\cl_animals\animals_69.png,0,,1490.38,0.0,1.0
24102902,cl_animals,9,test,6,assets\cl_animals\animals_77.png,0,,1492.11,0.0,1.0
24102902,cl_animals,9,test,7,assets\cl_animals\animals_13.png,0,,1493.83,0.0,1.0
24102902,cl_animals,9,test,8,assets\cl_animals\animals_42.png,0,,1495.56,0.0,1.0
24102902,cl_animals,9,test,9,assets\cl_animals\animals_31.png,0,,1497.29,0.0,1.0
24102902,cl_animals,9,test,10,assets\cl_animals\animals_28.png,0,,1499.02,0.0,1.0
24102902,cl_animals,9,test,11,assets\cl_animals\animals_59.png,0,,1500.75,0.0,1.0
24102902,cl_animals,9,test,12,assets\cl_animals\animals_85.png,0,,1502.48,0.0,1.0
24102902,cl_animals,9,test,13,assets\cl_animals\animals_38.png,0,,1504.21,0.0,1.0
24102902,cl_animals,9,test,14,assets\cl_animals\animals_82.png,1,0.623,1505.94,0.0,0.0
24102902,cl_animals,9,test,15,assets\cl_animals\animals_82.png,1,0.423,1507.66,1.0,1.0
24102902,cl_animals,9,test,16,assets\cl_animals\animals_87.png,0,,1509.39,0.0,1.0
24102902,cl_animals,9,test,17,assets\cl_animals\animals_81.png,0,,1511.12,0.0,1.0
24102902,cl_animals,9,test,18,assets\cl_animals\animals_11.png,1,0.104,1512.85,0.0,0.0
24102902,cl_animals,9,test,19,assets\cl_animals\animals_5.png,0,,1514.58,0.0,1.0
24102902,cl_animals,9,test,20,assets\cl_animals\animals_74.png,0,,1516.31,0.0,1.0
24102902,cl_animals,10,test,0,assets\cl_animals\animals_67.png,0,,1523.95,,
24102902,cl_animals,10,test,1,assets\cl_animals\animals_25.png,0,,1525.68,0.0,1.0
24102902,cl_animals,10,test,2,assets\cl_animals\animals_56.png,0,,1527.41,0.0,1.0
24102902,cl_animals,10,test,3,assets\cl_animals\animals_58.png,0,,1529.14,0.0,1.0
24102902,cl_animals,10,test,4,assets\cl_animals\animals_58.png,1,0.948,1530.87,1.0,1.0
24102902,cl_animals,10,test,5,assets\cl_animals\animals_58.png,1,0.748,1532.6,1.0,1.0
24102902,cl_animals,10,test,6,assets\cl_animals\animals_64.png,0,,1534.33,0.0,1.0
24102902,cl_animals,10,test,7,assets\cl_animals\animals_65.png,0,,1536.05,0.0,1.0
24102902,cl_animals,10,test,8,assets\cl_animals\animals_57.png,0,,1537.78,0.0,1.0
24102902,cl_animals,10,test,9,assets\cl_animals\animals_36.png,0,,1539.51,0.0,1.0
24102902,cl_animals,10,test,10,assets\cl_animals\animals_66.png,0,,1541.24,0.0,1.0
24102902,cl_animals,10,test,11,assets\cl_animals\animals_66.png,1,0.711,1542.97,1.0,1.0
24102902,cl_animals,10,test,12,assets\cl_animals\animals_60.png,0,,1544.7,0.0,1.0
24102902,cl_animals,10,test,13,assets\cl_animals\animals_61.png,0,,1546.42,0.0,1.0
24102902,cl_animals,10,test,14,assets\cl_animals\animals_48.png,0,,1548.15,0.0,1.0
24102902,cl_animals,10,test,15,assets\cl_animals\animals_48.png,1,0.595,1549.88,1.0,1.0
24102902,cl_animals,10,test,16,assets\cl_animals\animals_30.png,0,,1551.61,0.0,1.0
24102902,cl_animals,10,test,17,assets\cl_animals\animals_15.png,0,,1553.34,0.0,1.0
24102902,cl_animals,10,test,18,assets\cl_animals\animals_83.png,0,,1555.07,0.0,1.0
24102902,cl_animals,10,test,19,assets\cl_animals\animals_1.png,0,,1556.79,0.0,1.0
24102902,cl_animals,10,test,20,assets\cl_animals\animals_19.png,1,0.804,1558.52,0.0,0.0
24102902,cl_faces,1,test,0,assets\cl_faces\faces_7.png,0,,1570.08,,
24102902,cl_faces,1,test,1,assets\cl_faces\faces_12.png,0,,1571.8,0.0,1.0
24102902,cl_faces,1,test,2,assets\cl_faces\faces_25.png,0,,1573.53,0.0,1.0
24102902,cl_faces,1,test,3,assets\cl_faces\faces_1.png,0,,1575.25,0.0,1.0
24102902,cl_faces,1,test,4,assets\cl_faces\faces_1.png,1,0.457,1576.98,1.0,1.0
24102902,cl_faces,1,test,5,assets\cl_faces\faces_71.png,0,,1578.71,0.0,1.0
24102902,cl_faces,1,test,6,assets\cl_faces\faces_54.png,0,,1580.44,0.0,1.0
24102902,cl_faces,1,test,7,assets\cl_faces\faces_82.png,0,,1582.17,0.0,1.0
24102902,cl_faces,1,test,8,assets\cl_faces\faces_22.png,0,,1583.9,0.0,1.0
24102902,cl_faces,1,test,9,assets\cl_faces\faces_80.png,1,0.103,1585.62,0.0,0.0
24102902,cl_faces,1,test,10,assets\cl_faces\faces_5.png,0,,1587.35,0.0,1.0
24102902,cl_faces,1,test,11,assets\cl_faces\faces_26.png,0,,1589.08,0.0,1.0
24102902,cl_faces,1,test,12,assets\cl_faces\faces_76.png,0,,1590.81,0.0,1.0
24102902,cl_faces,1,test,13,assets\cl_faces\faces_31.png,0,,1592.53,0.0,1.0
24102902,cl_faces,1,test,14,assets\cl_faces\faces_78.png,0,,1594.27,0.0,1.0
24102902,cl_faces,1,test,15,assets\cl_faces\faces_27.png,0,,1596.0,0.0,1.0
24102902,cl_faces,1,test,16,assets\cl_faces\faces_28.png,0,,1597.72,0.0,1.0
24102902,cl_faces,1,test,17,assets\cl_faces\faces_37.png,0,,1599.45,0.0,1.0
24102902,cl_faces,1,test,18,assets\cl_faces\faces_33.png,0,,1601.17,0.0,1.0
24102902,cl_faces,1,test,19,assets\cl_faces\faces_30.png,0,,1602.9,0.0,1.0
24102902,cl_faces,1,test,20,assets\cl_faces\faces_86.png,0,,1604.63,0.0,1.0
24102902,cl_faces,2,test,0,assets\cl_faces\faces_73.png,0,,1612.0,,
24102902,cl_faces,2,test,1,assets\cl_faces\faces_73.png,1,0.509,1613.72,1.0,1.0
24102902,cl_faces,2,test,2,assets\cl_faces\faces_88.png,0,,1615.45,0.0,1.0
24102902,cl_faces,2,test,3,assets\cl_faces\faces_58.png,0,,1617.18,0.0,1.0
24102902,cl_faces,2,test,4,assets\cl_faces\faces_70.png,0,,1618.9,0.0,1.0
24102902,cl_faces,2,test,5,assets\cl_faces\faces_75.png,0,,1620.63,0.0,1.0
24102902,cl_faces,2,test,6,assets\cl_faces\faces_21.png,0,,1622.35,0.0,1.0
24102902,cl_faces,2,test,7,assets\cl_faces\faces_90.png,0,,1624.08,0.0,1.0
24102902,cl_faces,2,test,8,assets\cl_faces\faces_42.png,0,,1625.81,0.0,1.0
24102902,cl_faces,2,test,9,assets\cl_faces\faces_11.png,0,,1627.54,0.0,1.0
24102902,cl_faces,2,test,10,assets\cl_faces\faces_19.png,0,,1629.26,0.0,1.0
24102902,cl_faces,2,test,11,assets\cl_faces\faces_41.png,0,,1630.99,0.0,1.0
24102902,cl_faces,2,test,12,assets\cl_faces\faces_15.png,0,,1632.72,0.0,1.0
24102902,cl_faces,2,test,13,assets\cl_faces\faces_39.png,0,,1634.44,0.0,1.0
24102902,cl_faces,2,test,14,assets\cl_faces\faces_39.png,1,0.86,1636.17,1.0,1.0
24102902,cl_faces,2,test,15,assets\cl_faces\faces_89.png,0,,1637.9,0.0,1.0
24102902,cl_faces,2,test,16,assets\cl_faces\faces_89.png,1,0.517,1639.62,1.0,1.0
24102902,cl_faces,2,test,17,assets\cl_faces\faces_9.png,0,,1641.35,0.0,1.0
24102902,cl_faces,2,test,18,assets\cl_faces\faces_83.png,0,,1643.08,0.0,1.0
24102902,cl_faces,2,test,19,assets\cl_faces\faces_52.png,0,,1644.81,0.0,1.0
24102902,cl_faces,2,test,20,assets\cl_faces\faces_18.png,0,,1646.53,0.0,1.0
24102902,cl_faces,3,test,0,assets\cl_faces\faces_36.png,0,,1655.1,,
24102902,cl_faces,3,test,1,assets\cl_faces\faces_36.png,1,0.687,1656.82,1.0,1.0
24102902,cl_faces,3,test,2,assets\cl_faces\faces_59.png,0,,1658.55,0.0,1.0
24102902,cl_faces,3,test,3,assets\cl_faces\faces_2.png,0,,1660.28,0.0,1.0
24102902,cl_faces,3,test,4,assets\cl_faces\faces_62.png,0,,1662.0,0.0,1.0
24102902,cl_faces,3,test,5,assets\cl_faces\faces_14.png,0,,1663.73,0.0,1.0
24102902,cl_faces,3,test,6,assets\cl_faces\faces_74.png,0,,1665.46,0.0,1.0
24102902,cl_faces,3,test,7,assets\cl_faces\faces_22.png,0,,1667.18,0.0,1.0
24102902,cl_faces,3,test,8,assets\cl_faces\faces_68.png,0,,1668.91,0.0,1.0
24102902,cl_faces,3,test,9,assets\cl_faces\faces_61.png,0,,1670.64,0.0,1.0
24102902,cl_faces,3,test,10,assets\cl_faces\faces_20.png,0,,1672.36,0.0,1.0
24102902,cl_faces,3,test,11,assets\cl_faces\faces_85.png,0,,1674.09,0.0,1.0
24102902,cl_faces,3,test,12,assets\cl_faces\faces_24.png,0,,1675.82,0.0,1.0
24102902,cl_faces,3,test,13,assets\cl_faces\faces_1.png,0,,1677.54,0.0,1.0
24102902,cl_faces,3,test,14,assets\cl_faces\faces_64.png,0,,1679.28,0.0,1.0
24102902,cl_faces,3,test,15,assets\cl_faces\faces_67.png,0,,1681.0,0.0,1.0
24102902,cl_faces,3,test,16,assets\cl_faces\faces_84.png,0,,1682.73,0.0,1.0
24102902,cl_faces,3,test,17,assets\cl_faces\faces_71.png,0,,1684.46,0.0,1.0
24102902,cl_faces,3,test,18,assets\cl_faces\faces_71.png,1,0.461,1686.18,1.0,1.0
24102902,cl_faces,3,test,19,assets\cl_faces\faces_60.png,0,,1687.91,0.0,1.0
24102902,cl_faces,3,test,20,assets\cl_faces\faces_60.png,1,0.568,1689.64,1.0,1.0
24102902,cl_faces,4,test,0,assets\cl_faces\faces_21.png,0,,1697.07,,
24102902,cl_faces,4,test,1,assets\cl_faces\faces_81.png,0,,1698.8,0.0,1.0
24102902,cl_faces,4,test,2,assets\cl_faces\faces_30.png,0,,1700.53,0.0,1.0
24102902,cl_faces,4,test,3,assets\cl_faces\faces_47.png,0,,1702.25,0.0,1.0
24102902,cl_faces,4,test,4,assets\cl_faces\faces_3.png,0,,1703.98,0.0,1.0
24102902,cl_faces,4,test,5,assets\cl_faces\faces_23.png,0,,1705.71,0.0,1.0
24102902,cl_faces,4,test,6,assets\cl_faces\faces_79.png,0,,1707.43,0.0,1.0
24102902,cl_faces,4,test,7,assets\cl_faces\faces_8.png,0,,1709.16,0.0,1.0
24102902,cl_faces,4,test,8,assets\cl_faces\faces_75.png,0,,1710.88,0.0,1.0
24102902,cl_faces,4,test,9,assets\cl_faces\faces_89.png,0,,1712.61,0.0,1.0
24102902,cl_faces,4,test,10,assets\cl_faces\faces_32.png,0,,1714.34,0.0,1.0
24102902,cl_faces,4,test,11,assets\cl_faces\faces_37.png,0,,1716.07,0.0,1.0
24102902,cl_faces,4,test,12,assets\cl_faces\faces_28.png,0,,1717.79,0.0,1.0
24102902,cl_faces,4,test,13,assets\cl_faces\faces_28.png,1,0.52,1719.52,1.0,1.0
24102902,cl_faces,4,test,14,assets\cl_faces\faces_48.png,0,,1721.25,0.0,1.0
24102902,cl_faces,4,test,15,assets\cl_faces\faces_83.png,0,,1722.97,0.0,1.0
24102902,cl_faces,4,test,16,assets\cl_faces\faces_80.png,0,,1724.7,0.0,1.0
24102902,cl_faces,4,test,17,assets\cl_faces\faces_63.png,0,,1726.43,0.0,1.0
24102902,cl_faces,4,test,18,assets\cl_faces\faces_7.png,0,,1728.15,0.0,1.0
24102902,cl_faces,4,test,19,assets\cl_faces\faces_4.png,0,,1729.88,0.0,1.0
24102902,cl_faces,4,test,20,assets\cl_faces\faces_4.png,0,,1731.61,1.0,0.0
24102902,cl_faces,5,test,0,assets\cl_faces\faces_74.png,0,,1739.38,,
24102902,cl_faces,5,test,1,assets\cl_faces\faces_74.png,1,0.569,1741.1,1.0,1.0
24102902,cl_faces,5,test,2,assets\cl_faces\faces_41.png,0,,1742.83,0.0,1.0
24102902,cl_faces,5,test,3,assets\cl_faces\faces_17.png,0,,1744.56,0.0,1.0
24102902,cl_faces,5,test,4,assets\cl_faces\faces_62.png,0,,1746.28,0.0,1.0
24102902,cl_faces,5,test,5,assets\cl_faces\faces_40.png,0,,1748.01,0.0,1.0
24102902,cl_faces,5,test,6,assets\cl_faces\faces_36.png,0,,1749.74,0.0,1.0
24102902,cl_faces,5,test,7,assets\cl_faces\faces_20.png,0,,1751.46,0.0,1.0
24102902,cl_faces,5,test,8,assets\cl_faces\faces_43.png,0,,1753.19,0.0,1.0
24102902,cl_faces,5,test,9,assets\cl_faces\faces_5.png,0,,1754.91,0.0,1.0
24102902,cl_faces,5,test,10,assets\cl_faces\faces_18.png,0,,1756.64,0.0,1.0
24102902,cl_faces,5,test,11,assets\cl_faces\faces_45.png,0,,1758.37,0.0,1.0
24102902,cl_faces,5,test,12,assets\cl_faces\faces_56.png,0,,1760.1,0.0,1.0
24102902,cl_faces,5,test,13,assets\cl_faces\faces_29.png,0,,1761.82,0.0,1.0
24102902,cl_faces,5,test,14,assets\cl_faces\faces_82.png,0,,1763.55,0.0,1.0
24102902,cl_faces,5,test,15,assets\cl_faces\faces_61.png,0,,1765.28,0.0,1.0
24102902,cl_faces,5,test,16,assets\cl_faces\faces_90.png,0,,1767.01,0.0,1.0
24102902,cl_faces,5,test,17,assets\cl_faces\faces_55.png,0,,1768.73,0.0,1.0
24102902,cl_faces,5,test,18,assets\cl_faces\faces_38.png,0,,1770.46,0.0,1.0
24102902,cl_faces,5,test,19,assets\cl_faces\faces_38.png,1,0.733,1772.18,1.0,1.0
24102902,cl_faces,5,test,20,assets\cl_faces\faces_38.png,1,0.487,1773.91,1.0,1.0
24102902,cl_faces,6,test,0,assets\cl_faces\faces_24.png,0,,1781.21,,
24102902,cl_faces,6,test,1,assets\cl_faces\faces_24.png,0,,1782.93,1.0,0.0
24102902,cl_faces,6,test,2,assets\cl_faces\faces_42.png,0,,1784.66,0.0,1.0
24102902,cl_faces,6,test,3,assets\cl_faces\faces_70.png,0,,1786.39,0.0,1.0
24102902,cl_faces,6,test,4,assets\cl_faces\faces_86.png,0,,1788.11,0.0,1.0
24102902,cl_faces,6,test,5,assets\cl_faces\faces_30.png,0,,1789.84,0.0,1.0
24102902,cl_faces,6,test,6,assets\cl_faces\faces_44.png,0,,1791.56,0.0,1.0
24102902,cl_faces,6,test,7,assets\cl_faces\faces_3.png,0,,1793.29,0.0,1.0
24102902,cl_faces,6,test,8,assets\cl_faces\faces_66.png,0,,1795.02,0.0,1.0
24102902,cl_faces,6,test,9,assets\cl_faces\faces_23.png,0,,1796.75,0.0,1.0
24102902,cl_faces,6,test,10,assets\cl_faces\faces_47.png,0,,1798.47,0.0,1.0
24102902,cl_faces,6,test,11,assets\cl_faces\faces_79.png,0,,1800.2,0.0,1.0
24102902,cl_faces,6,test,12,assets\cl_faces\faces_54.png,0,,1801.93,0.0,1.0
24102902,cl_faces,6,test,13,assets\cl_faces\faces_35.png,0,,1803.65,0.0,1.0
24102902,cl_faces,6,test,14,assets\cl_faces\faces_16.png,0,,1805.38,0.0,1.0
24102902,cl_faces,6,test,15,assets\cl_faces\faces_53.png,0,,1807.11,0.0,1.0
24102902,cl_faces,6,test,16,assets\cl_faces\faces_53.png,1,0.404,1808.83,1.0,1.0
24102902,cl_faces,6,test,17,assets\cl_faces\faces_53.png,1,0.847,1810.56,1.0,1.0
24102902,cl_faces,6,test,18,assets\cl_faces\faces_65.png,1,0.866,1812.28,0.0,0.0
24102902,cl_faces,6,test,19,assets\cl_faces\faces_49.png,0,,1814.01,0.0,1.0
24102902,cl_faces,6,test,20,assets\cl_faces\faces_14.png,0,,1815.74,0.0,1.0
24102902,cl_faces,7,test,0,assets\cl_faces\faces_27.png,0,,1823.5,,
24102902,cl_faces,7,test,1,assets\cl_faces\faces_27.png,1,0.635,1825.23,1.0,1.0
24102902,cl_faces,7,test,2,assets\cl_faces\faces_27.png,1,0.574,1826.95,1.0,1.0
24102902,cl_faces,7,test,3,assets\cl_faces\faces_33.png,0,,1828.68,0.0,1.0
24102902,cl_faces,7,test,4,assets\cl_faces\faces_84.png,0,,1830.4,0.0,1.0
24102902,cl_faces,7,test,5,assets\cl_faces\faces_32.png,0,,1832.13,0.0,1.0
24102902,cl_faces,7,test,6,assets\cl_faces\faces_8.png,0,,1833.86,0.0,1.0
24102902,cl_faces,7,test,7,assets\cl_faces\faces_8.png,1,0.741,1835.58,1.0,1.0
24102902,cl_faces,7,test,8,assets\cl_faces\faces_20.png,0,,1837.31,0.0,1.0
24102902,cl_faces,7,test,9,assets\cl_faces\faces_51.png,0,,1839.04,0.0,1.0
24102902,cl_faces,7,test,10,assets\cl_faces\faces_34.png,0,,1840.76,0.0,1.0
24102902,cl_faces,7,test,11,assets\cl_faces\faces_59.png,0,,1842.49,0.0,1.0
24102902,cl_faces,7,test,12,assets\cl_faces\faces_85.png,0,,1844.22,0.0,1.0
24102902,cl_faces,7,test,13,assets\cl_faces\faces_76.png,0,,1845.94,0.0,1.0
24102902,cl_faces,7,test,14,assets\cl_faces\faces_12.png,1,0.103,1847.67,0.0,0.0
24102902,cl_faces,7,test,15,assets\cl_faces\faces_50.png,0,,1849.4,0.0,1.0
24102902,cl_faces,7,test,16,assets\cl_faces\faces_57.png,0,,1851.12,0.0,1.0
24102902,cl_faces,7,test,17,assets\cl_faces\faces_26.png,0,,1852.85,0.0,1.0
24102902,cl_faces,7,test,18,assets\cl_faces\faces_74.png,0,,1854.58,0.0,1.0
24102902,cl_faces,7,test,19,assets\cl_faces\faces_9.png,0,,1856.3,0.0,1.0
24102902,cl_faces,7,test,20,assets\cl_faces\faces_10.png,0,,1858.03,0.0,1.0
24102902,cl_faces,8,test,0,assets\cl_faces\faces_44.png,0,,1865.5,,
24102902,cl_faces,8,test,1,assets\cl_faces\faces_75.png,0,,1867.22,0.0,1.0
24102902,cl_faces,8,test,2,assets\cl_faces\faces_39.png,0,,1868.95,0.0,1.0
24102902,cl_faces,8,test,3,assets\cl_faces\faces_6.png,0,,1870.68,0.0,1.0
24102902,cl_faces,8,test,4,assets\cl_faces\faces_55.png,0,,1872.4,0.0,1.0
24102902,cl_faces,8,test,5,assets\cl_faces\faces_89.png,0,,1874.13,0.0,1.0
24102902,cl_faces,8,test,6,assets\cl_faces\faces_87.png,0,,1875.85,0.0,1.0
24102902,cl_faces,8,test,7,assets\cl_faces\faces_13.png,0,,1877.58,0.0,1.0
24102902,cl_faces,8,test,8,assets\cl_faces\faces_68.png,0,,1879.31,0.0,1.0
24102902,cl_faces,8,test,9,assets\cl_faces\faces_48.png,0,,1881.03,0.0,1.0
24102902,cl_faces,8,test,10,assets\cl_faces\faces_21.png,1,0.105,1882.76,0.0,0.0
24102902,cl_faces,8,test,11,assets\cl_faces\faces_17.png,0,,1884.48,0.0,1.0
24102902,cl_faces,8,test,12,assets\cl_faces\faces_72.png,0,,1886.21,0.0,1.0
24102902,cl_faces,8,test,13,assets\cl_faces\faces_5.png,0,,1887.94,0.0,1.0
24102902,cl_faces,8,test,14,assets\cl_faces\faces_14.png,0,,1889.67,0.0,1.0
24102902,cl_faces,8,test,15,assets\cl_faces\faces_52.png,0,,1891.39,0.0,1.0
24102902,cl_faces,8,test,16,assets\cl_faces\faces_84.png,0,,1893.12,0.0,1.0
24102902,cl_faces,8,test,17,assets\cl_faces\faces_56.png,0,,1894.85,0.0,1.0
24102902,cl_faces,8,test,18,assets\cl_faces\faces_64.png,0,,1896.58,0.0,1.0
24102902,cl_faces,8,test,19,assets\cl_faces\faces_53.png,0,,1898.3,0.0,1.0
24102902,cl_faces,8,test,20,assets\cl_faces\faces_1.png,1,0.105,1900.03,0.0,0.0
24102902,cl_faces,9,test,0,assets\cl_faces\faces_59.png,0,,1908.29,,
24102902,cl_faces,9,test,1,assets\cl_faces\faces_59.png,0,,1910.01,1.0,0.0
24102902,cl_faces,9,test,2,assets\cl_faces\faces_85.png,1,0.103,1911.74,0.0,0.0
24102902,cl_faces,9,test,3,assets\cl_faces\faces_25.png,0,,1913.46,0.0,1.0
24102902,cl_faces,9,test,4,assets\cl_faces\faces_25.png,1,0.513,1915.19,1.0,1.0
24102902,cl_faces,9,test,5,assets\cl_faces\faces_25.png,1,0.426,1916.91,1.0,1.0
24102902,cl_faces,9,test,6,assets\cl_faces\faces_81.png,0,,1918.64,0.0,1.0
24102902,cl_faces,9,test,7,assets\cl_faces\faces_83.png,0,,1920.37,0.0,1.0
24102902,cl_faces,9,test,8,assets\cl_faces\faces_37.png,0,,1922.09,0.0,1.0
24102902,cl_faces,9,test,9,assets\cl_faces\faces_71.png,0,,1923.82,0.0,1.0
24102902,cl_faces,9,test,10,assets\cl_faces\faces_29.png,0,,1925.55,0.0,1.0
24102902,cl_faces,9,test,11,assets\cl_faces\faces_73.png,0,,1927.27,0.0,1.0
24102902,cl_faces,9,test,12,assets\cl_faces\faces_63.png,0,,1929.0,0.0,1.0
24102902,cl_faces,9,test,13,assets\cl_faces\faces_27.png,0,,1930.73,0.0,1.0
24102902,cl_faces,9,test,14,assets\cl_faces\faces_3.png,0,,1932.46,0.0,1.0
24102902,cl_faces,9,test,15,assets\cl_faces\faces_65.png,0,,1934.18,0.0,1.0
24102902,cl_faces,9,test,16,assets\cl_faces\faces_19.png,0,,1935.91,0.0,1.0
24102902,cl_faces,9,test,17,assets\cl_faces\faces_43.png,0,,1937.64,0.0,1.0
24102902,cl_faces,9,test,18,assets\cl_faces\faces_74.png,0,,1939.36,0.0,1.0
24102902,cl_faces,9,test,19,assets\cl_faces\faces_82.png,0,,1941.09,0.0,1.0
24102902,cl_faces,9,test,20,assets\cl_faces\faces_62.png,0,,1942.81,0.0,1.0
24102902,cl_faces,10,test,0,assets\cl_faces\faces_11.png,0,,1950.62,,
24102902,cl_faces,10,test,1,assets\cl_faces\faces_87.png,0,,1952.35,0.0,1.0
24102902,cl_faces,10,test,2,assets\cl_faces\faces_8.png,0,,1954.08,0.0,1.0
24102902,cl_faces,10,test,3,assets\cl_faces\faces_8.png,0,,1955.8,1.0,0.0
24102902,cl_faces,10,test,4,assets\cl_faces\faces_16.png,1,0.103,1957.52,0.0,0.0
24102902,cl_faces,10,test,5,assets\cl_faces\faces_18.png,0,,1959.25,0.0,1.0
24102902,cl_faces,10,test,6,assets\cl_faces\faces_26.png,0,,1960.98,0.0,1.0
24102902,cl_faces,10,test,7,assets\cl_faces\faces_46.png,0,,1962.71,0.0,1.0
24102902,cl_faces,10,test,8,assets\cl_faces\faces_61.png,0,,1964.43,0.0,1.0
24102902,cl_faces,10,test,9,assets\cl_faces\faces_22.png,0,,1966.16,0.0,1.0
24102902,cl_faces,10,test,10,assets\cl_faces\faces_9.png,0,,1967.89,0.0,1.0
24102902,cl_faces,10,test,11,assets\cl_faces\faces_67.png,0,,1969.62,0.0,1.0
24102902,cl_faces,10,test,12,assets\cl_faces\faces_7.png,0,,1971.35,0.0,1.0
24102902,cl_faces,10,test,13,assets\cl_faces\faces_7.png,1,0.606,1973.07,1.0,1.0
24102902,cl_faces,10,test,14,assets\cl_faces\faces_66.png,0,,1974.8,0.0,1.0
24102902,cl_faces,10,test,15,assets\cl_faces\faces_1.png,0,,1976.52,0.0,1.0
24102902,cl_faces,10,test,16,assets\cl_faces\faces_13.png,0,,1978.25,0.0,1.0
24102902,cl_faces,10,test,17,assets\cl_faces\faces_17.png,0,,1979.98,0.0,1.0
24102902,cl_faces,10,test,18,assets\cl_faces\faces_90.png,0,,1981.7,0.0,1.0
24102902,cl_faces,10,test,19,assets\cl_faces\faces_12.png,0,,1983.43,0.0,1.0
24102902,cl_faces,10,test,20,assets\cl_faces\faces_51.png,0,,1985.16,0.0,1.0
24102902,cl_tools,1,test,0,assets\cl_tools\tools_83.png,0,,1999.02,,
24102902,cl_tools,1,test,1,assets\cl_tools\tools_56.png,0,,2000.74,0.0,1.0
24102902,cl_tools,1,test,2,assets\cl_tools\tools_32.png,0,,2002.47,0.0,1.0
24102902,cl_tools,1,test,3,assets\cl_tools\tools_12.png,0,,2004.2,0.0,1.0
24102902,cl_tools,1,test,4,assets\cl_tools\tools_60.png,0,,2005.93,0.0,1.0
24102902,cl_tools,1,test,5,assets\cl_tools\tools_49.png,0,,2007.66,0.0,1.0
24102902,cl_tools,1,test,6,assets\cl_tools\tools_62.png,0,,2009.39,0.0,1.0
24102902,cl_tools,1,test,7,assets\cl_tools\tools_76.png,0,,2011.12,0.0,1.0
24102902,cl_tools,1,test,8,assets\cl_tools\tools_84.png,0,,2012.85,0.0,1.0
24102902,cl_tools,1,test,9,assets\cl_tools\tools_14.png,0,,2014.58,0.0,1.0
24102902,cl_tools,1,test,10,assets\cl_tools\tools_47.png,0,,2016.3,0.0,1.0
24102902,cl_tools,1,test,11,assets\cl_tools\tools_39.png,0,,2018.03,0.0,1.0
24102902,cl_tools,1,test,12,assets\cl_tools\tools_38.png,0,,2019.76,0.0,1.0
24102902,cl_tools,1,test,13,assets\cl_tools\tools_63.png,0,,2021.49,0.0,1.0
24102902,cl_tools,1,test,14,assets\cl_tools\tools_53.png,0,,2023.22,0.0,1.0
24102902,cl_tools,1,test,15,assets\cl_tools\tools_74.png,0,,2024.95,0.0,1.0
24102902,cl_tools,1,test,16,assets\cl_tools\tools_67.png,0,,2026.67,0.0,1.0
24102902,cl_tools,1,test,17,assets\cl_tools\tools_10.png,0,,2028.4,0.0,1.0
24102902,cl_tools,1,test,18,assets\cl_tools\tools_5.png,0,,2030.13,0.0,1.0
24102902,cl_tools,1,test,19,assets\cl_tools\tools_30.png,0,,2031.86,0.0,1.0
24102902,cl_tools,1,test,20,assets\cl_tools\tools_1.png,0,,2033.59,0.0,1.0
24102902,cl_tools,2,test,0,assets\cl_tools\tools_16.png,0,,2041.36,,
24102902,cl_tools,2,test,1,assets\cl_tools\tools_26.png,0,,2043.08,0.0,1.0
24102902,cl_tools,2,test,2,assets\cl_tools\tools_26.png,0,,2044.81,1.0,0.0
24102902,cl_tools,2,test,3,assets\cl_tools\tools_70.png,0,,2046.54,0.0,1.0
24102902,cl_tools,2,test,4,assets\cl_tools\tools_70.png,0,,2048.27,1.0,0.0
24102902,cl_tools,2,test,5,assets\cl_tools\tools_89.png,0,,2050.0,0.0,1.0
24102902,cl_tools,2,test,6,assets\cl_tools\tools_89.png,1,0.757,2051.73,1.0,1.0
24102902,cl_tools,2,test,7,assets\cl_tools\tools_85.png,0,,2053.46,0.0,1.0
24102902,cl_tools,2,test,8,assets\cl_tools\tools_18.png,0,,2055.19,0.0,1.0
24102902,cl_tools,2,test,9,assets\cl_tools\tools_64.png,0,,2056.91,0.0,1.0
24102902,cl_tools,2,test,10,assets\cl_tools\tools_72.png,0,,2058.64,0.0,1.0
24102902,cl_tools,2,test,11,assets\cl_tools\tools_45.png,0,,2060.37,0.0,1.0
24102902,cl_tools,2,test,12,assets\cl_tools\tools_37.png,0,,2062.1,0.0,1.0
24102902,cl_tools,2,test,13,assets\cl_tools\tools_90.png,0,,2063.83,0.0,1.0
24102902,cl_tools,2,test,14,assets\cl_tools\tools_90.png,1,0.553,2065.56,1.0,1.0
24102902,cl_tools,2,test,15,assets\cl_tools\tools_2.png,0,,2067.29,0.0,1.0
24102902,cl_tools,2,test,16,assets\cl_tools\tools_88.png,0,,2069.02,0.0,1.0
24102902,cl_tools,2,test,17,assets\cl_tools\tools_52.png,0,,2070.75,0.0,1.0
24102902,cl_tools,2,test,18,assets\cl_tools\tools_54.png,0,,2072.47,0.0,1.0
24102902,cl_tools,2,test,19,assets\cl_tools\tools_44.png,0,,2074.2,0.0,1.0
24102902,cl_tools,2,test,20,assets\cl_tools\tools_36.png,0,,2075.93,0.0,1.0
24102902,cl_tools,3,test,0,assets\cl_tools\tools_46.png,0,,2083.23,,
24102902,cl_tools,3,test,1,assets\cl_tools\tools_27.png,0,,2084.96,0.0,1.0
24102902,cl_tools,3,test,2,assets\cl_tools\tools_40.png,0,,2086.69,0.0,1.0
24102902,cl_tools,3,test,3,assets\cl_tools\tools_60.png,0,,2088.42,0.0,1.0
24102902,cl_tools,3,test,4,assets\cl_tools\tools_9.png,0,,2090.15,0.0,1.0
24102902,cl_tools,3,test,5,assets\cl_tools\tools_84.png,0,,2091.88,0.0,1.0
24102902,cl_tools,3,test,6,assets\cl_tools\tools_4.png,0,,2093.61,0.0,1.0
24102902,cl_tools,3,test,7,assets\cl_tools\tools_76.png,0,,2095.34,0.0,1.0
24102902,cl_tools,3,test,8,assets\cl_tools\tools_17.png,0,,2097.06,0.0,1.0
24102902,cl_tools,3,test,9,assets\cl_tools\tools_80.png,0,,2098.79,0.0,1.0
24102902,cl_tools,3,test,10,assets\cl_tools\tools_6.png,0,,2100.53,0.0,1.0
24102902,cl_tools,3,test,11,assets\cl_tools\tools_14.png,0,,2102.25,0.0,1.0
24102902,cl_tools,3,test,12,assets\cl_tools\tools_62.png,1,0.104,2103.98,0.0,0.0
24102902,cl_tools,3,test,13,assets\cl_tools\tools_23.png,0,,2105.71,0.0,1.0
24102902,cl_tools,3,test,14,assets\cl_tools\tools_3.png,0,,2107.45,0.0,1.0
24102902,cl_tools,3,test,15,assets\cl_tools\tools_19.png,0,,2109.17,0.0,1.0
24102902,cl_tools,3,test,16,assets\cl_tools\tools_61.png,0,,2110.9,0.0,1.0
24102902,cl_tools,3,test,17,assets\cl_tools\tools_70.png,0,,2112.63,0.0,1.0
24102902,cl_tools,3,test,18,assets\cl_tools\tools_56.png,0,,2114.36,0.0,1.0
24102902,cl_tools,3,test,19,assets\cl_tools\tools_21.png,0,,2116.09,0.0,1.0
24102902,cl_tools,3,test,20,assets\cl_tools\tools_26.png,0,,2117.82,0.0,1.0
24102902,cl_tools,4,test,0,assets\cl_tools\tools_24.png,0,,2125.7,,
24102902,cl_tools,4,test,1,assets\cl_tools\tools_65.png,0,,2127.43,0.0,1.0
24102902,cl_tools,4,test,2,assets\cl_tools\tools_69.png,0,,2129.16,0.0,1.0
24102902,cl_tools,4,test,3,assets\cl_tools\tools_16.png,0,,2130.89,0.0,1.0
24102902,cl_tools,4,test,4,assets\cl_tools\tools_18.png,0,,2132.62,0.0,1.0
24102902,cl_tools,4,test,5,assets\cl_tools\tools_18.png,0,,2134.35,1.0,0.0
24102902,cl_tools,4,test,6,assets\cl_tools\tools_55.png,1,0.103,2136.07,0.0,0.0
24102902,cl_tools,4,test,7,assets\cl_tools\tools_87.png,0,,2137.8,0.0,1.0
24102902,cl_tools,4,test,8,assets\cl_tools\tools_37.png,0,,2139.53,0.0,1.0
24102902,cl_tools,4,test,9,assets\cl_tools\tools_68.png,0,,2141.26,0.0,1.0
24102902,cl_tools,4,test,10,assets\cl_tools\tools_15.png,0,,2142.99,0.0,1.0
24102902,cl_tools,4,test,11,assets\cl_tools\tools_30.png,0,,2144.71,0.0,1.0
24102902,cl_tools,4,test,12,assets\cl_tools\tools_1.png,0,,2146.44,0.0,1.0
24102902,cl_tools,4,test,13,assets\cl_tools\tools_29.png,0,,2148.18,0.0,1.0
24102902,cl_tools,4,test,14,assets\cl_tools\tools_83.png,0,,2149.9,0.0,1.0
24102902,cl_tools,4,test,15,assets\cl_tools\tools_78.png,0,,2151.63,0.0,1.0
24102902,cl_tools,4,test,16,assets\cl_tools\tools_32.png,0,,2153.36,0.0,1.0
24102902,cl_tools,4,test,17,assets\cl_tools\tools_32.png,1,0.903,2155.09,1.0,1.0
24102902,cl_tools,4,test,18,assets\cl_tools\tools_63.png,0,,2156.81,0.0,1.0
24102902,cl_tools,4,test,19,assets\cl_tools\tools_47.png,0,,2158.54,0.0,1.0
24102902,cl_tools,4,test,20,assets\cl_tools\tools_86.png,0,,2160.27,0.0,1.0
24102902,cl_tools,5,test,0,assets\cl_tools\tools_53.png,0,,2168.02,,
24102902,cl_tools,5,test,1,assets\cl_tools\tools_49.png,0,,2169.75,0.0,1.0
24102902,cl_tools,5,test,2,assets\cl_tools\tools_79.png,0,,2171.48,0.0,1.0
24102902,cl_tools,5,test,3,assets\cl_tools\tools_77.png,0,,2173.21,0.0,1.0
24102902,cl_tools,5,test,4,assets\cl_tools\tools_89.png,0,,2174.94,0.0,1.0
24102902,cl_tools,5,test,5,assets\cl_tools\tools_89.png,1,0.385,2176.67,1.0,1.0
24102902,cl_tools,5,test,6,assets\cl_tools\tools_14.png,0,,2178.4,0.0,1.0
24102902,cl_tools,5,test,7,assets\cl_tools\tools_36.png,0,,2180.13,0.0,1.0
24102902,cl_tools,5,test,8,assets\cl_tools\tools_36.png,1,0.639,2181.85,1.0,1.0
24102902,cl_tools,5,test,9,assets\cl_tools\tools_20.png,0,,2183.58,0.0,1.0
24102902,cl_tools,5,test,10,assets\cl_tools\tools_20.png,1,0.503,2185.31,1.0,1.0
24102902,cl_tools,5,test,11,assets\cl_tools\tools_82.png,0,,2187.04,0.0,1.0
24102902,cl_tools,5,test,12,assets\cl_tools\tools_64.png,1,0.981,2188.77,0.0,0.0
24102902,cl_tools,5,test,13,assets\cl_tools\tools_10.png,0,,2190.5,0.0,1.0
24102902,cl_tools,5,test,14,assets\cl_tools\tools_43.png,0,,2192.23,0.0,1.0
24102902,cl_tools,5,test,15,assets\cl_tools\tools_5.png,0,,2193.96,0.0,1.0
24102902,cl_tools,5,test,16,assets\cl_tools\tools_73.png,0,,2195.69,0.0,1.0
24102902,cl_tools,5,test,17,assets\cl_tools\tools_73.png,1,0.671,2197.41,1.0,1.0
24102902,cl_tools,5,test,18,assets\cl_tools\tools_56.png,0,,2199.14,0.0,1.0
24102902,cl_tools,5,test,19,assets\cl_tools\tools_34.png,0,,2200.87,0.0,1.0
24102902,cl_tools,5,test,20,assets\cl_tools\tools_35.png,0,,2202.6,0.0,1.0
24102902,cl_tools,6,test,0,assets\cl_tools\tools_76.png,0,,2210.09,,
24102902,cl_tools,6,test,1,assets\cl_tools\tools_55.png,0,,2211.81,0.0,1.0
24102902,cl_tools,6,test,2,assets\cl_tools\tools_39.png,0,,2213.54,0.0,1.0
24102902,cl_tools,6,test,3,assets\cl_tools\tools_62.png,0,,2215.27,0.0,1.0
24102902,cl_tools,6,test,4,assets\cl_tools\tools_62.png,0,,2217.0,1.0,0.0
24102902,cl_tools,6,test,5,assets\cl_tools\tools_88.png,1,0.104,2218.73,0.0,0.0
24102902,cl_tools,6,test,6,assets\cl_tools\tools_46.png,0,,2220.45,0.0,1.0
24102902,cl_tools,6,test,7,assets\cl_tools\tools_70.png,0,,2222.18,0.0,1.0
24102902,cl_tools,6,test,8,assets\cl_tools\tools_19.png,0,,2223.91,0.0,1.0
24102902,cl_tools,6,test,9,assets\cl_tools\tools_16.png,0,,2225.64,0.0,1.0
24102902,cl_tools,6,test,10,assets\cl_tools\tools_28.png,0,,2227.37,0.0,1.0
24102902,cl_tools,6,test,11,assets\cl_tools\tools_38.png,0,,2229.1,0.0,1.0
24102902,cl_tools,6,test,12,assets\cl_tools\tools_78.png,0,,2230.83,0.0,1.0
24102902,cl_tools,6,test,13,assets\cl_tools\tools_3.png,0,,2232.56,0.0,1.0
24102902,cl_tools,6,test,14,assets\cl_tools\tools_72.png,0,,2234.28,0.0,1.0
24102902,cl_tools,6,test,15,assets\cl_tools\tools_84.png,0,,2236.01,0.0,1.0
24102902,cl_tools,6,test,16,assets\cl_tools\tools_49.png,0,,2237.74,0.0,1.0
24102902,cl_tools,6,test,17,assets\cl_tools\tools_63.png,0,,2239.47,0.0,1.0
24102902,cl_tools,6,test,18,assets\cl_tools\tools_27.png,0,,2241.2,0.0,1.0
24102902,cl_tools,6,test,19,assets\cl_tools\tools_45.png,0,,2242.93,0.0,1.0
24102902,cl_tools,6,test,20,assets\cl_tools\tools_9.png,0,,2244.65,0.0,1.0
24102902,cl_tools,7,test,0,assets\cl_tools\tools_53.png,0,,2252.36,,
24102902,cl_tools,7,test,1,assets\cl_tools\tools_53.png,1,0.455,2254.09,1.0,1.0
24102902,cl_tools,7,test,2,assets\cl_tools\tools_68.png,1,0.104,2255.82,0.0,0.0
24102902,cl_tools,7,test,3,assets\cl_tools\tools_65.png,0,,2257.54,0.0,1.0
24102902,cl_tools,7,test,4,assets\cl_tools\tools_33.png,0,,2259.27,0.0,1.0
24102902,cl_tools,7,test,5,assets\cl_tools\tools_20.png,0,,2261.0,0.0,1.0
24102902,cl_tools,7,test,6,assets\cl_tools\tools_6.png,0,,2262.73,0.0,1.0
24102902,cl_tools,7,test,7,assets\cl_tools\tools_40.png,0,,2264.46,0.0,1.0
24102902,cl_tools,7,test,8,assets\cl_tools\tools_43.png,0,,2266.19,0.0,1.0
24102902,cl_tools,7,test,9,assets\cl_tools\tools_32.png,0,,2267.92,0.0,1.0
24102902,cl_tools,7,test,10,assets\cl_tools\tools_61.png,0,,2269.64,0.0,1.0
24102902,cl_tools,7,test,11,assets\cl_tools\tools_8.png,0,,2271.37,0.0,1.0
24102902,cl_tools,7,test,12,assets\cl_tools\tools_76.png,0,,2273.1,0.0,1.0
24102902,cl_tools,7,test,13,assets\cl_tools\tools_90.png,0,,2274.83,0.0,1.0
24102902,cl_tools,7,test,14,assets\cl_tools\tools_54.png,0,,2276.56,0.0,1.0
24102902,cl_tools,7,test,15,assets\cl_tools\tools_50.png,0,,2278.29,0.0,1.0
24102902,cl_tools,7,test,16,assets\cl_tools\tools_39.png,0,,2280.02,0.0,1.0
24102902,cl_tools,7,test,17,assets\cl_tools\tools_77.png,0,,2281.75,0.0,1.0
24102902,cl_tools,7,test,18,assets\cl_tools\tools_37.png,0,,2283.48,0.0,1.0
24102902,cl_tools,7,test,19,assets\cl_tools\tools_71.png,0,,2285.21,0.0,1.0
24102902,cl_tools,7,test,20,assets\cl_tools\tools_1.png,0,,2286.93,0.0,1.0
24102902,cl_tools,8,test,0,assets\cl_tools\tools_79.png,0,,2294.67,,
24102902,cl_tools,8,test,1,assets\cl_tools\tools_81.png,0,,2296.39,0.0,1.0
24102902,cl_tools,8,test,2,assets\cl_tools\tools_82.png,0,,2298.12,0.0,1.0
24102902,cl_tools,8,test,3,assets\cl_tools\tools_82.png,1,0.723,2299.85,1.0,1.0
24102902,cl_tools,8,test,4,assets\cl_tools\tools_12.png,0,,2301.58,0.0,1.0
24102902,cl_tools,8,test,5,assets\cl_tools\tools_12.png,1,0.788,2303.3,1.0,1.0
24102902,cl_tools,8,test,6,assets\cl_tools\tools_12.png,1,0.669,2305.03,1.0,1.0
24102902,cl_tools,8,test,7,assets\cl_tools\tools_12.png,1,0.59,2306.76,1.0,1.0
24102902,cl_tools,8,test,8,assets\cl_tools\tools_12.png,1,0.517,2308.49,1.0,1.0
24102902,cl_tools,8,test,9,assets\cl_tools\tools_11.png,0,,2310.22,0.0,1.0
24102902,cl_tools,8,test,10,assets\cl_tools\tools_75.png,0,,2311.95,0.0,1.0
24102902,cl_tools,8,test,11,assets\cl_tools\tools_36.png,0,,2313.68,0.0,1.0
24102902,cl_tools,8,test,12,assets\cl_tools\tools_17.png,0,,2315.41,0.0,1.0
24102902,cl_tools,8,test,13,assets\cl_tools\tools_17.png,1,0.711,2317.13,1.0,1.0
24102902,cl_tools,8,test,14,assets\cl_tools\tools_41.png,0,,2318.86,0.0,1.0
24102902,cl_tools,8,test,15,assets\cl_tools\tools_22.png,0,,2320.59,0.0,1.0
24102902,cl_tools,8,test,16,assets\cl_tools\tools_3.png,0,,2322.32,0.0,1.0
24102902,cl_tools,8,test,17,assets\cl_tools\tools_87.png,0,,2324.05,0.0,1.0
24102902,cl_tools,8,test,18,assets\cl_tools\tools_67.png,0,,2325.78,0.0,1.0
24102902,cl_tools,8,test,19,assets\cl_tools\tools_35.png,0,,2327.5,0.0,1.0
24102902,cl_tools,8,test,20,assets\cl_tools\tools_28.png,0,,2329.23,0.0,1.0
24102902,cl_tools,9,test,0,assets\cl_tools\tools_51.png,0,,2336.66,,
24102902,cl_tools,9,test,1,assets\cl_tools\tools_26.png,0,,2338.38,0.0,1.0
24102902,cl_tools,9,test,2,assets\cl_tools\tools_48.png,0,,2340.11,0.0,1.0
24102902,cl_tools,9,test,3,assets\cl_tools\tools_89.png,0,,2341.84,0.0,1.0
24102902,cl_tools,9,test,4,assets\cl_tools\tools_29.png,0,,2343.57,0.0,1.0
24102902,cl_tools,9,test,5,assets\cl_tools\tools_16.png,0,,2345.3,0.0,1.0
24102902,cl_tools,9,test,6,assets\cl_tools\tools_72.png,0,,2347.03,0.0,1.0
24102902,cl_tools,9,test,7,assets\cl_tools\tools_40.png,0,,2348.76,0.0,1.0
24102902,cl_tools,9,test,8,assets\cl_tools\tools_57.png,0,,2350.49,0.0,1.0
24102902,cl_tools,9,test,9,assets\cl_tools\tools_59.png,0,,2352.22,0.0,1.0
24102902,cl_tools,9,test,10,assets\cl_tools\tools_64.png,0,,2353.95,0.0,1.0
24102902,cl_tools,9,test,11,assets\cl_tools\tools_43.png,0,,2355.67,0.0,1.0
24102902,cl_tools,9,test,12,assets\cl_tools\tools_54.png,0,,2357.4,0.0,1.0
24102902,cl_tools,9,test,13,assets\cl_tools\tools_27.png,0,,2359.13,0.0,1.0
24102902,cl_tools,9,test,14,assets\cl_tools\tools_27.png,1,0.563,2360.86,1.0,1.0
24102902,cl_tools,9,test,15,assets\cl_tools\tools_61.png,1,0.105,2362.59,0.0,0.0
24102902,cl_tools,9,test,16,assets\cl_tools\tools_88.png,0,,2364.31,0.0,1.0
24102902,cl_tools,9,test,17,assets\cl_tools\tools_34.png,0,,2366.04,0.0,1.0
24102902,cl_tools,9,test,18,assets\cl_tools\tools_9.png,0,,2367.77,0.0,1.0
24102902,cl_tools,9,test,19,assets\cl_tools\tools_60.png,0,,2369.5,0.0,1.0
24102902,cl_tools,9,test,20,assets\cl_tools\tools_7.png,0,,2371.23,0.0,1.0
24102902,cl_tools,10,test,0,assets\cl_tools\tools_86.png,0,,2379.06,,
24102902,cl_tools,10,test,1,assets\cl_tools\tools_37.png,0,,2380.79,0.0,1.0
24102902,cl_tools,10,test,2,assets\cl_tools\tools_69.png,0,,2382.51,0.0,1.0
24102902,cl_tools,10,test,3,assets\cl_tools\tools_5.png,0,,2384.24,0.0,1.0
24102902,cl_tools,10,test,4,assets\cl_tools\tools_66.png,0,,2385.97,0.0,1.0
24102902,cl_tools,10,test,5,assets\cl_tools\tools_68.png,0,,2387.7,0.0,1.0
24102902,cl_tools,10,test,6,assets\cl_tools\tools_78.png,0,,2389.43,0.0,1.0
24102902,cl_tools,10,test,7,assets\cl_tools\tools_6.png,1,0.105,2391.16,0.0,0.0
24102902,cl_tools,10,test,8,assets\cl_tools\tools_74.png,0,,2392.89,0.0,1.0
24102902,cl_tools,10,test,9,assets\cl_tools\tools_74.png,1,0.581,2394.62,1.0,1.0
24102902,cl_tools,10,test,10,assets\cl_tools\tools_65.png,0,,2396.34,0.0,1.0
24102902,cl_tools,10,test,11,assets\cl_tools\tools_39.png,0,,2398.07,0.0,1.0
24102902,cl_tools,10,test,12,assets\cl_tools\tools_32.png,0,,2399.8,0.0,1.0
24102902,cl_tools,10,test,13,assets\cl_tools\tools_70.png,0,,2401.53,0.0,1.0
24102902,cl_tools,10,test,14,assets\cl_tools\tools_85.png,0,,2403.25,0.0,1.0
24102902,cl_tools,10,test,15,assets\cl_tools\tools_15.png,0,,2404.98,0.0,1.0
24102902,cl_tools,10,test,16,assets\cl_tools\tools_58.png,0,,2406.71,0.0,1.0
24102902,cl_tools,10,test,17,assets\cl_tools\tools_67.png,0,,2408.44,0.0,1.0
24102902,cl_tools,10,test,18,assets\cl_tools\tools_13.png,0,,2410.17,0.0,1.0
24102902,cl_tools,10,test,19,assets\cl_tools\tools_19.png,0,,2411.9,0.0,1.0
24102902,cl_tools,10,test,20,assets\cl_tools\tools_40.png,0,,2413.63,0.0,1.0
24102902,cl_character,1,test,0,,0,,2425.55,,
24102902,cl_character,1,test,1,,0,,2427.28,0.0,1.0
24102902,cl_character,1,test,2,,0,,2429.01,0.0,1.0
24102902,cl_character,1,test,3,,0,,2430.73,0.0,1.0
24102902,cl_character,1,test,4,,0,,2432.46,0.0,1.0
24102902,cl_character,1,test,5,,0,,2434.19,0.0,1.0
24102902,cl_character,1,test,6,,0,,2435.91,0.0,1.0
24102902,cl_character,1,test,7,,0,,2437.64,0.0,1.0
24102902,cl_character,1,test,8,,0,,2439.37,0.0,1.0
24102902,cl_character,1,test,9,,0,,2441.1,0.0,1.0
24102902,cl_character,1,test,10,,0,,2442.82,0.0,1.0
24102902,cl_character,1,test,11,,0,,2444.55,0.0,1.0
24102902,cl_character,1,test,12,,0,,2446.27,0.0,1.0
24102902,cl_character,1,test,13,,0,,2448.0,0.0,1.0
24102902,cl_character,1,test,14,,0,,2449.73,0.0,1.0
24102902,cl_character,1,test,15,,0,,2451.45,0.0,1.0
24102902,cl_character,1,test,16,,1,0.541,2453.18,0.0,0.0
24102902,cl_character,1,test,17,,0,,2454.91,0.0,1.0
24102902,cl_character,1,test,18,,0,,2456.63,0.0,1.0
24102902,cl_character,1,test,19,,0,,2458.36,0.0,1.0
24102902,cl_character,1,test,20,,0,,2460.08,0.0,1.0
24102902,cl_character,2,test,0,,0,,2467.91,,
24102902,cl_character,2,test,1,,0,,2469.64,0.0,1.0
24102902,cl_character,2,test,2,,0,,2471.37,0.0,1.0
24102902,cl_character,2,test,3,,0,,2473.1,1.0,0.0
24102902,cl_character,2,test,4,,1,0.104,2474.82,0.0,0.0
24102902,cl_character,2,test,5,,0,,2476.54,0.0,1.0
24102902,cl_character,2,test,6,,0,,2478.27,0.0,1.0
24102902,cl_character,2,test,7,,0,,2479.99,0.0,1.0
24102902,cl_character,2,test,8,,0,,2481.72,0.0,1.0
24102902,cl_character,2,test,9,,1,0.66,2483.44,1.0,1.0
24102902,cl_character,2,test,10,,0,,2485.17,0.0,1.0
24102902,cl_character,2,test,11,,0,,2486.89,0.0,1.0
24102902,cl_character,2,test,12,,0,,2488.61,0.0,1.0
24102902,cl_character,2,test,13,,1,0.952,2490.33,1.0,1.0
24102902,cl_character,2,test,14,,0,,2492.06,0.0,1.0
24102902,cl_character,2,test,15,,0,,2493.78,0.0,1.0
24102902,cl_character,2,test,16,,0,,2495.51,0.0,1.0
24102902,cl_character,2,test,17,,0,,2497.23,0.0,1.0
24102902,cl_character,2,test,18,,0,,2498.96,0.0,1.0
24102902,cl_character,2,test,19,,0,,2500.68,0.0,1.0
24102902,cl_character,2,test,20,,1,0.715,2502.4,1.0,1.0
24102902,cl_character,3,test,0,,0,,2510.52,,
24102902,cl_character,3,test,1,,1,0.75,2512.25,1.0,1.0
24102902,cl_character,3,test,2,,0,,2513.97,0.0,1.0
24102902,cl_character,3,test,3,,0,,2515.7,0.0,1.0
24102902,cl_character,3,test,4,,0,,2517.43,0.0,1.0
24102902,cl_character,3,test,5,,0,,2519.15,0.0,1.0
24102902,cl_character,3,test,6,,0,,2520.88,0.0,1.0
24102902,cl_character,3,test,7,,0,,2522.6,0.0,1.0
24102902,cl_character,3,test,8,,0,,2524.32,0.0,1.0
24102902,cl_character,3,test,9,,0,,2526.05,0.0,1.0
24102902,cl_character,3,test,10,,0,,2527.77,0.0,1.0
24102902,cl_character,3,test,11,,0,,2529.49,0.0,1.0
24102902,cl_character,3,test,12,,0,,2531.22,0.0,1.0
24102902,cl_character,3,test,13,,0,,2532.94,0.0,1.0
24102902,cl_character,3,test,14,,0,,2534.67,0.0,1.0
24102902,cl_character,3,test,15,,0,,2536.39,0.0,1.0
24102902,cl_character,3,test,16,,0,,2538.12,0.0,1.0
24102902,cl_character,3,test,17,,0,,2539.85,0.0,1.0
24102902,cl_character,3,test,18,,0,,2541.58,0.0,1.0
24102902,cl_character,3,test,19,,0,,2543.3,0.0,1.0
24102902,cl_character,3,test,20,,0,,2545.03,0.0,1.0
24102902,cl_character,4,test,0,,0,,2552.42,,
24102902,cl_character,4,test,1,,0,,2554.14,0.0,1.0
24102902,cl_character,4,test,2,,0,,2555.87,0.0,1.0
24102902,cl_character,4,test,3,,0,,2557.59,0.0,1.0
24102902,cl_character,4,test,4,,1,0.752,2559.31,1.0,1.0
24102902,cl_character,4,test,5,,0,,2561.03,0.0,1.0
24102902,cl_character,4,test,6,,0,,2562.76,0.0,1.0
24102902,cl_character,4,test,7,,0,,2564.48,0.0,1.0
24102902,cl_character,4,test,8,,0,,2566.2,0.0,1.0
24102902,cl_character,4,test,9,,1,0.102,2567.92,1.0,1.0
24102902,cl_character,4,test,10,,0,,2569.65,0.0,1.0
24102902,cl_character,4,test,11,,0,,2571.37,0.0,1.0
24102902,cl_character,4,test,12,,0,,2573.1,0.0,1.0
24102902,cl_character,4,test,13,,0,,2574.82,0.0,1.0
24102902,cl_character,4,test,14,,0,,2576.54,0.0,1.0
24102902,cl_character,4,test,15,,0,,2578.27,0.0,1.0
24102902,cl_character,4,test,16,,1,0.103,2579.99,1.0,1.0
24102902,cl_character,4,test,17,,0,,2581.71,0.0,1.0
24102902,cl_character,4,test,18,,0,,2583.44,0.0,1.0
24102902,cl_character,4,test,19,,0,,2585.17,0.0,1.0
24102902,cl_character,4,test,20,,0,,2586.89,0.0,1.0
24102902,cl_character,5,test,0,,0,,2594.35,,
24102902,cl_character,5,test,1,,0,,2596.08,0.0,1.0
24102902,cl_character,5,test,2,,0,,2597.8,0.0,1.0
24102902,cl_character,5,test,3,,0,,2599.53,0.0,1.0
24102902,cl_character,5,test,4,,0,,2601.25,0.0,1.0
24102902,cl_character,5,test,5,,0,,2602.97,0.0,1.0
24102902,cl_character,5,test,6,,0,,2604.7,0.0,1.0
24102902,cl_character,5,test,7,,0,,2606.42,0.0,1.0
24102902,cl_character,5,test,8,,0,,2608.15,0.0,1.0
24102902,cl_character,5,test,9,,0,,2609.87,0.0,1.0
24102902,cl_character,5,test,10,,0,,2611.6,0.0,1.0
24102902,cl_character,5,test,11,,0,,2613.32,0.0,1.0
24102902,cl_character,5,test,12,,0,,2615.05,0.0,1.0
24102902,cl_character,5,test,13,,0,,2616.78,0.0,1.0
24102902,cl_character,5,test,14,,0,,2618.5,0.0,1.0
24102902,cl_character,5,test,15,,0,,2620.23,0.0,1.0
24102902,cl_character,5,test,16,,1,0.537,2621.95,1.0,1.0
24102902,cl_character,5,test,17,,0,,2623.67,0.0,1.0
24102902,cl_character,5,test,18,,0,,2625.4,0.0,1.0
24102902,cl_character,5,test,19,,0,,2627.12,0.0,1.0
24102902,cl_character,5,test,20,,0,,2628.85,0.0,1.0
24102902,cl_character,6,test,0,,0,,2636.74,,
24102902,cl_character,6,test,1,,0,,2638.46,0.0,1.0
24102902,cl_character,6,test,2,,0,,2640.18,1.0,0.0
24102902,cl_character,6,test,3,,1,0.103,2641.91,0.0,0.0
24102902,cl_character,6,test,4,,0,,2643.63,0.0,1.0
24102902,cl_character,6,test,5,,0,,2645.36,0.0,1.0
24102902,cl_character,6,test,6,,1,0.694,2647.08,1.0,1.0
24102902,cl_character,6,test,7,,0,,2648.8,0.0,1.0
24102902,cl_character,6,test,8,,0,,2650.52,0.0,1.0
24102902,cl_character,6,test,9,,0,,2652.25,0.0,1.0
24102902,cl_character,6,test,10,,1,0.468,2653.97,1.0,1.0
24102902,cl_character,6,test,11,,0,,2655.69,0.0,1.0
24102902,cl_character,6,test,12,,0,,2657.43,0.0,1.0
24102902,cl_character,6,test,13,,0,,2659.15,0.0,1.0
24102902,cl_character,6,test,14,,0,,2660.88,0.0,1.0
24102902,cl_character,6,test,15,,0,,2662.6,0.0,1.0
24102902,cl_character,6,test,16,,0,,2664.33,0.0,1.0
24102902,cl_character,6,test,17,,0,,2666.05,0.0,1.0
24102902,cl_character,6,test,18,,0,,2667.78,0.0,1.0
24102902,cl_character,6,test,19,,0,,2669.51,0.0,1.0
24102902,cl_character,6,test,20,,0,,2671.23,0.0,1.0
24102902,cl_character,7,test,0,,0,,2679.26,,
24102902,cl_character,7,test,1,,0,,2680.99,0.0,1.0
24102902,cl_character,7,test,2,,0,,2682.71,0.0,1.0
24102902,cl_character,7,test,3,,0,,2684.44,0.0,1.0
24102902,cl_character,7,test,4,,0,,2686.16,0.0,1.0
24102902,cl_character,7,test,5,,0,,2687.88,0.0,1.0
24102902,cl_character,7,test,6,,0,,2689.61,0.0,1.0
24102902,cl_character,7,test,7,,0,,2691.33,0.0,1.0
24102902,cl_character,7,test,8,,0,,2693.06,0.0,1.0
24102902,cl_character,7,test,9,,0,,2694.78,0.0,1.0
24102902,cl_character,7,test,10,,0,,2696.51,0.0,1.0
24102902,cl_character,7,test,11,,1,0.593,2698.23,1.0,1.0
24102902,cl_character,7,test,12,,0,,2699.95,0.0,1.0
24102902,cl_character,7,test,13,,0,,2701.68,0.0,1.0
24102902,cl_character,7,test,14,,0,,2703.4,0.0,1.0
24102902,cl_character,7,test,15,,1,0.105,2705.13,0.0,0.0
24102902,cl_character,7,test,16,,0,,2706.85,0.0,1.0
24102902,cl_character,7,test,17,,0,,2708.57,0.0,1.0
24102902,cl_character,7,test,18,,0,,2710.3,0.0,1.0
24102902,cl_character,7,test,19,,0,,2712.02,0.0,1.0
24102902,cl_character,7,test,20,,0,,2713.74,1.0,0.0
24102902,cl_character,8,test,0,,0,,2722.16,,
24102902,cl_character,8,test,1,,0,,2723.88,0.0,1.0
24102902,cl_character,8,test,2,,0,,2725.61,0.0,1.0
24102902,cl_character,8,test,3,,0,,2727.33,0.0,1.0
24102902,cl_character,8,test,4,,0,,2729.05,0.0,1.0
24102902,cl_character,8,test,5,,0,,2730.78,0.0,1.0
24102902,cl_character,8,test,6,,0,,2732.51,0.0,1.0
24102902,cl_character,8,test,7,,0,,2734.23,0.0,1.0
24102902,cl_character,8,test,8,,1,0.636,2735.95,1.0,1.0
24102902,cl_character,8,test,9,,0,,2737.68,0.0,1.0
24102902,cl_character,8,test,10,,0,,2739.4,0.0,1.0
24102902,cl_character,8,test,11,,0,,2741.13,0.0,1.0
24102902,cl_character,8,test,12,,0,,2742.85,0.0,1.0
24102902,cl_character,8,test,13,,0,,2744.57,0.0,1.0
24102902,cl_character,8,test,14,,0,,2746.3,0.0,1.0
24102902,cl_character,8,test,15,,1,0.706,2748.02,1.0,1.0
24102902,cl_character,8,test,16,,0,,2749.74,0.0,1.0
24102902,cl_character,8,test,17,,0,,2751.47,0.0,1.0
24102902,cl_character,8,test,18,,0,,2753.2,0.0,1.0
24102902,cl_character,8,test,19,,0,,2754.92,0.0,1.0
24102902,cl_character,8,test,20,,0,,2756.64,1.0,0.0
24102902,cl_character,9,test,0,,0,,2764.34,,
24102902,cl_character,9,test,1,,0,,2766.06,0.0,1.0
24102902,cl_character,9,test,2,,0,,2767.79,0.0,1.0
24102902,cl_character,9,test,3,,0,,2769.51,0.0,1.0
24102902,cl_character,9,test,4,,1,0.995,2771.23,1.0,1.0
24102902,cl_character,9,test,5,,0,,2772.96,0.0,1.0
24102902,cl_character,9,test,6,,0,,2774.68,0.0,1.0
24102902,cl_character,9,test,7,,0,,2776.41,0.0,1.0
24102902,cl_character,9,test,8,,0,,2778.13,0.0,1.0
24102902,cl_character,9,test,9,,0,,2779.86,0.0,1.0
24102902,cl_character,9,test,10,,0,,2781.59,0.0,1.0
24102902,cl_character,9,test,11,,1,0.901,2783.31,1.0,1.0
24102902,cl_character,9,test,12,,0,,2785.04,0.0,1.0
24102902,cl_character,9,test,13,,0,,2786.76,0.0,1.0
24102902,cl_character,9,test,14,,0,,2788.49,0.0,1.0
24102902,cl_character,9,test,15,,0,,2790.21,0.0,1.0
24102902,cl_character,9,test,16,,0,,2791.94,0.0,1.0
24102902,cl_character,9,test,17,,0,,2793.66,0.0,1.0
24102902,cl_character,9,test,18,,0,,2795.39,0.0,1.0
24102902,cl_character,9,test,19,,0,,2797.11,0.0,1.0
24102902,cl_character,9,test,20,,0,,2798.83,0.0,1.0
24102902,cl_character,10,test,0,,0,,2806.73,,
24102902,cl_character,10,test,1,,0,,2808.45,0.0,1.0
24102902,cl_character,10,test,2,,1,0.573,2810.18,1.0,1.0
24102902,cl_character,10,test,3,,0,,2811.9,0.0,1.0
24102902,cl_character,10,test,4,,0,,2813.62,0.0,1.0
24102902,cl_character,10,test,5,,0,,2815.35,1.0,0.0
24102902,cl_character,10,test,6,,1,0.103,2817.07,0.0,0.0
24102902,cl_character,10,test,7,,0,,2818.79,0.0,1.0
24102902,cl_character,10,test,8,,0,,2820.52,0.0,1.0
24102902,cl_character,10,test,9,,0,,2822.24,0.0,1.0
24102902,cl_character,10,test,10,,0,,2823.97,0.0,1.0
24102902,cl_character,10,test,11,,0,,2825.69,0.0,1.0
24102902,cl_character,10,test,12,,0,,2827.41,0.0,1.0
24102902,cl_character,10,test,13,,0,,2829.14,0.0,1.0
24102902,cl_character,10,test,14,,0,,2830.86,0.0,1.0
24102902,cl_character,10,test,15,,0,,2832.58,1.0,0.0
24102902,cl_character,10,test,16,,0,,2834.31,0.0,1.0
24102902,cl_character,10,test,17,,0,,2836.03,0.0,1.0
24102902,cl_character,10,test,18,,0,,2837.76,0.0,1.0
24102902,cl_character,10,test,19,,0,,2839.48,0.0,1.0
24102902,cl_character,10,test,20,,0,,2841.2,1.0,0.0
24102902,ed_birds,1,test,0,assets\ed_birds\duckling_3.png,0,,2865.02,,
24102902,ed_birds,1,test,1,assets\ed_birds\eagle_3.png,0,,2866.78,0.0,1.0
24102902,ed_birds,1,test,2,assets\ed_birds\vulture_2.png,0,,2868.52,0.0,1.0
24102902,ed_birds,1,test,3,assets\ed_birds\ostrich_2.png,0,,2870.29,0.0,1.0
24102902,ed_birds,1,test,4,assets\ed_birds\flamingo_2.png,0,,2872.03,0.0,1.0
24102902,ed_birds,1,test,5,assets\ed_birds\flamingo_2.png,1,0.825,2873.76,1.0,1.0
24102902,ed_birds,1,test,6,assets\ed_birds\puffin_3.png,0,,2875.51,0.0,1.0
24102902,ed_birds,1,test,7,assets\ed_birds\puffin_3.png,1,0.676,2877.24,1.0,1.0
24102902,ed_birds,1,test,8,assets\ed_birds\cardinal_3.png,0,,2878.98,0.0,1.0
24102902,ed_birds,1,test,9,assets\ed_birds\cardinal_2.png,1,0.724,2880.74,0.0,0.0
24102902,ed_birds,1,test,10,assets\ed_birds\cardinal_1.png,0,,2882.48,0.0,1.0
24102902,ed_birds,1,test,11,assets\ed_birds\seagull_1.png,0,,2884.22,0.0,1.0
24102902,ed_birds,1,test,12,assets\ed_birds\seagull_1.png,1,0.644,2885.95,1.0,1.0
24102902,ed_birds,1,test,13,assets\ed_birds\penguin_1.png,0,,2887.69,0.0,1.0
24102902,ed_birds,1,test,14,assets\ed_birds\flamingo_3.png,0,,2889.44,0.0,1.0
24102902,ed_birds,1,test,15,assets\ed_birds\flamingo_3.png,1,0.693,2891.18,1.0,1.0
24102902,ed_birds,1,test,16,assets\ed_birds\flamingo_3.png,1,0.678,2892.91,1.0,1.0
24102902,ed_birds,1,test,17,assets\ed_birds\crow_2.png,0,,2894.65,0.0,1.0
24102902,ed_birds,1,test,18,assets\ed_birds\turkey_3.png,0,,2896.39,0.0,1.0
24102902,ed_birds,1,test,19,assets\ed_birds\toucan_3.png,0,,2898.13,0.0,1.0
24102902,ed_birds,1,test,20,assets\ed_birds\toucan_1.png,0,,2899.87,0.0,1.0
24102902,ed_birds,2,test,0,assets\ed_birds\crow_3.png,0,,2907.25,,
24102902,ed_birds,2,test,1,assets\ed_birds\pheasant_3.png,0,,2909.0,0.0,1.0
24102902,ed_birds,2,test,2,assets\ed_birds\swan_2.png,0,,2910.74,0.0,1.0
24102902,ed_birds,2,test,3,assets\ed_birds\goose_3.png,0,,2912.48,0.0,1.0
24102902,ed_birds,2,test,4,assets\ed_birds\pheasant_1.png,0,,2914.22,0.0,1.0
24102902,ed_birds,2,test,5,assets\ed_birds\rooster_1.png,0,,2915.96,0.0,1.0
24102902,ed_birds,2,test,6,assets\ed_birds\hummingbird_2.png,0,,2917.71,0.0,1.0
24102902,ed_birds,2,test,7,assets\ed_birds\pelican_3.png,0,,2919.47,0.0,1.0
24102902,ed_birds,2,test,8,assets\ed_birds\pelican_2.png,0,,2921.21,0.0,1.0
24102902,ed_birds,2,test,9,assets\ed_birds\pigeon_1.png,0,,2922.95,0.0,1.0
24102902,ed_birds,2,test,10,assets\ed_birds\toucan_2.png,0,,2924.69,0.0,1.0
24102902,ed_birds,2,test,11,assets\ed_birds\hummingbird_1.png,0,,2926.44,0.0,1.0
24102902,ed_birds,2,test,12,assets\ed_birds\ostrich_3.png,0,,2928.17,0.0,1.0
24102902,ed_birds,2,test,13,assets\ed_birds\rooster_3.png,0,,2929.91,0.0,1.0
24102902,ed_birds,2,test,14,assets\ed_birds\crow_1.png,0,,2931.65,0.0,1.0
24102902,ed_birds,2,test,15,assets\ed_birds\goose_2.png,0,,2933.4,0.0,1.0
24102902,ed_birds,2,test,16,assets\ed_birds\goose_2.png,1,0.856,2935.13,1.0,1.0
24102902,ed_birds,2,test,17,assets\ed_birds\duckling_1.png,0,,2936.87,0.0,1.0
24102902,ed_birds,2,test,18,assets\ed_birds\goose_1.png,0,,2938.62,0.0,1.0
24102902,ed_birds,2,test,19,assets\ed_birds\goose_1.png,1,0.561,2940.35,1.0,1.0
24102902,ed_birds,2,test,20,assets\ed_birds\goose_1.png,1,0.615,2942.08,1.0,1.0
24102902,ed_birds,3,test,0,assets\ed_birds\swan_3.png,0,,2949.91,,
24102902,ed_birds,3,test,1,assets\ed_birds\pigeon_3.png,0,,2951.66,0.0,1.0
24102902,ed_birds,3,test,2,assets\ed_birds\penguin_3.png,0,,2953.4,0.0,1.0
24102902,ed_birds,3,test,3,assets\ed_birds\puffin_2.png,0,,2955.14,0.0,1.0
24102902,ed_birds,3,test,4,assets\ed_birds\cardinal_2.png,0,,2956.88,0.0,1.0
24102902,ed_birds,3,test,5,assets\ed_birds\peacock_1.png,0,,2958.63,0.0,1.0
24102902,ed_birds,3,test,6,assets\ed_birds\flamingo_2.png,0,,2960.36,0.0,1.0
24102902,ed_birds,3,test,7,assets\ed_birds\peacock_3.png,0,,2962.11,0.0,1.0
24102902,ed_birds,3,test,8,assets\ed_birds\flamingo_1.png,0,,2963.85,0.0,1.0
24102902,ed_birds,3,test,9,assets\ed_birds\hummingbird_3.png,0,,2965.6,0.0,1.0
24102902,ed_birds,3,test,10,assets\ed_birds\vulture_1.png,0,,2967.35,0.0,1.0
24102902,ed_birds,3,test,11,assets\ed_birds\vulture_1.png,1,0.544,2969.09,1.0,1.0
24102902,ed_birds,3,test,12,assets\ed_birds\pigeon_2.png,0,,2970.83,0.0,1.0
24102902,ed_birds,3,test,13,assets\ed_birds\eagle_1.png,0,,2972.56,0.0,1.0
24102902,ed_birds,3,test,14,assets\ed_birds\vulture_2.png,1,0.802,2974.3,0.0,0.0
24102902,ed_birds,3,test,15,assets\ed_birds\cardinal_3.png,0,,2976.03,0.0,1.0
24102902,ed_birds,3,test,16,assets\ed_birds\ostrich_1.png,0,,2977.78,0.0,1.0
24102902,ed_birds,3,test,17,assets\ed_birds\ostrich_2.png,0,,2979.51,0.0,1.0
24102902,ed_birds,3,test,18,assets\ed_birds\puffin_3.png,0,,2981.24,0.0,1.0
24102902,ed_birds,3,test,19,assets\ed_birds\vulture_3.png,0,,2982.99,0.0,1.0
24102902,ed_birds,3,test,20,assets\ed_birds\flamingo_3.png,0,,2984.73,0.0,1.0
24102902,ed_birds,4,test,0,assets\ed_birds\eagle_2.png,0,,2992.68,,
24102902,ed_birds,4,test,1,assets\ed_birds\toucan_1.png,0,,2994.42,0.0,1.0
24102902,ed_birds,4,test,2,assets\ed_birds\crow_3.png,0,,2996.15,0.0,1.0
24102902,ed_birds,4,test,3,assets\ed_birds\crow_3.png,1,0.641,2997.88,1.0,1.0
24102902,ed_birds,4,test,4,assets\ed_birds\crow_3.png,1,0.835,2999.62,1.0,1.0
24102902,ed_birds,4,test,5,assets\ed_birds\seagull_2.png,0,,3001.36,0.0,1.0
24102902,ed_birds,4,test,6,assets\ed_birds\swan_2.png,0,,3003.1,0.0,1.0
24102902,ed_birds,4,test,7,assets\ed_birds\pheasant_2.png,0,,3004.85,0.0,1.0
24102902,ed_birds,4,test,8,assets\ed_birds\ostrich_3.png,0,,3006.59,0.0,1.0
24102902,ed_birds,4,test,9,assets\ed_birds\pigeon_1.png,0,,3008.32,0.0,1.0
24102902,ed_birds,4,test,10,assets\ed_birds\rooster_2.png,0,,3010.07,0.0,1.0
24102902,ed_birds,4,test,11,assets\ed_birds\duckling_1.png,0,,3011.81,0.0,1.0
24102902,ed_birds,4,test,12,assets\ed_birds\penguin_2.png,0,,3013.56,0.0,1.0
24102902,ed_birds,4,test,13,assets\ed_birds\turkey_2.png,0,,3015.3,0.0,1.0
24102902,ed_birds,4,test,14,assets\ed_birds\duckling_2.png,0,,3017.05,0.0,1.0
24102902,ed_birds,4,test,15,assets\ed_birds\pheasant_3.png,0,,3018.79,0.0,1.0
24102902,ed_birds,4,test,16,assets\ed_birds\seagull_3.png,0,,3020.53,0.0,1.0
24102902,ed_birds,4,test,17,assets\ed_birds\toucan_2.png,0,,3022.27,0.0,1.0
24102902,ed_birds,4,test,18,assets\ed_birds\hummingbird_1.png,0,,3024.0,0.0,1.0
24102902,ed_birds,4,test,19,assets\ed_birds\pheasant_1.png,0,,3025.74,0.0,1.0
24102902,ed_birds,4,test,20,assets\ed_birds\duckling_3.png,0,,3027.47,0.0,1.0
24102902,ed_birds,5,test,0,assets\ed_birds\rooster_1.png,0,,3035.75,,
24102902,ed_birds,5,test,1,assets\ed_birds\rooster_1.png,1,0.66,3037.49,1.0,1.0
24102902,ed_birds,5,test,2,assets\ed_birds\turkey_1.png,0,,3039.38,0.0,1.0
24102902,ed_birds,5,test,3,assets\ed_birds\cardinal_2.png,0,,3041.13,0.0,1.0
24102902,ed_birds,5,test,4,assets\ed_birds\turkey_3.png,0,,3042.86,0.0,1.0
24102902,ed_birds,5,test,5,assets\ed_birds\turkey_3.png,1,0.579,3044.6,1.0,1.0
24102902,ed_birds,5,test,6,assets\ed_birds\pelican_2.png,0,,3046.34,0.0,1.0
24102902,ed_birds,5,test,7,assets\ed_birds\pelican_3.png,0,,3048.07,0.0,1.0
24102902,ed_birds,5,test,8,assets\ed_birds\swan_3.png,0,,3049.81,0.0,1.0
24102902,ed_birds,5,test,9,assets\ed_birds\crow_2.png,0,,3051.54,0.0,1.0
24102902,ed_birds,5,test,10,assets\ed_birds\cardinal_1.png,0,,3053.27,0.0,1.0
24102902,ed_birds,5,test,11,assets\ed_birds\peacock_2.png,0,,3055.01,0.0,1.0
24102902,ed_birds,5,test,12,assets\ed_birds\peacock_3.png,0,,3056.75,0.0,1.0
24102902,ed_birds,5,test,13,assets\ed_birds\flamingo_1.png,0,,3058.48,0.0,1.0
24102902,ed_birds,5,test,14,assets\ed_birds\puffin_1.png,0,,3060.22,0.0,1.0
24102902,ed_birds,5,test,15,assets\ed_birds\puffin_1.png,1,0.576,3061.96,1.0,1.0
24102902,ed_birds,5,test,16,assets\ed_birds\pelican_1.png,0,,3063.7,0.0,1.0
24102902,ed_birds,5,test,17,assets\ed_birds\pelican_1.png,1,0.586,3065.43,1.0,1.0
24102902,ed_birds,5,test,18,assets\ed_birds\eagle_2.png,0,,3067.16,0.0,1.0
24102902,ed_birds,5,test,19,assets\ed_birds\hummingbird_2.png,0,,3068.89,0.0,1.0
24102902,ed_birds,5,test,20,assets\ed_birds\peacock_1.png,0,,3070.63,0.0,1.0
24102902,ed_birds,6,test,0,assets\ed_birds\seagull_2.png,0,,3079.03,,
24102902,ed_birds,6,test,1,assets\ed_birds\pigeon_3.png,0,,3080.77,0.0,1.0
24102902,ed_birds,6,test,2,assets\ed_birds\ostrich_1.png,0,,3082.51,0.0,1.0
24102902,ed_birds,6,test,3,assets\ed_birds\ostrich_1.png,0,,3084.25,1.0,0.0
24102902,ed_birds,6,test,4,assets\ed_birds\cardinal_3.png,1,0.104,3085.98,0.0,0.0
24102902,ed_birds,6,test,5,assets\ed_birds\seagull_1.png,0,,3087.72,0.0,1.0
24102902,ed_birds,6,test,6,assets\ed_birds\swan_1.png,1,0.104,3089.46,0.0,0.0
24102902,ed_birds,6,test,7,assets\ed_birds\swan_1.png,1,0.565,3091.2,1.0,1.0
24102902,ed_birds,6,test,8,assets\ed_birds\eagle_1.png,0,,3092.93,0.0,1.0
24102902,ed_birds,6,test,9,assets\ed_birds\swan_2.png,0,,3094.67,0.0,1.0
24102902,ed_birds,6,test,10,assets\ed_birds\rooster_3.png,0,,3096.41,0.0,1.0
24102902,ed_birds,6,test,11,assets\ed_birds\flamingo_3.png,0,,3098.14,0.0,1.0
24102902,ed_birds,6,test,12,assets\ed_birds\goose_1.png,0,,3099.87,0.0,1.0
24102902,ed_birds,6,test,13,assets\ed_birds\ostrich_2.png,0,,3101.61,0.0,1.0
24102902,ed_birds,6,test,14,assets\ed_birds\crow_1.png,0,,3103.34,0.0,1.0
24102902,ed_birds,6,test,15,assets\ed_birds\duckling_1.png,0,,3105.08,0.0,1.0
24102902,ed_birds,6,test,16,assets\ed_birds\pheasant_1.png,0,,3106.81,0.0,1.0
24102902,ed_birds,6,test,17,assets\ed_birds\goose_3.png,0,,3108.55,0.0,1.0
24102902,ed_birds,6,test,18,assets\ed_birds\puffin_2.png,0,,3110.28,0.0,1.0
24102902,ed_birds,6,test,19,assets\ed_birds\cardinal_2.png,0,,3112.03,0.0,1.0
24102902,ed_birds,6,test,20,assets\ed_birds\crow_3.png,0,,3113.76,0.0,1.0
24102902,ed_birds,7,test,0,assets\ed_birds\goose_2.png,0,,3121.82,,
24102902,ed_birds,7,test,1,assets\ed_birds\duckling_2.png,0,,3123.56,0.0,1.0
24102902,ed_birds,7,test,2,assets\ed_birds\toucan_2.png,0,,3125.3,0.0,1.0
24102902,ed_birds,7,test,3,assets\ed_birds\flamingo_2.png,0,,3127.03,0.0,1.0
24102902,ed_birds,7,test,4,assets\ed_birds\turkey_1.png,0,,3128.9,0.0,1.0
24102902,ed_birds,7,test,5,assets\ed_birds\pelican_2.png,0,,3130.64,0.0,1.0
24102902,ed_birds,7,test,6,assets\ed_birds\peacock_3.png,0,,3132.38,0.0,1.0
24102902,ed_birds,7,test,7,assets\ed_birds\pigeon_1.png,0,,3134.11,0.0,1.0
24102902,ed_birds,7,test,8,assets\ed_birds\duckling_3.png,0,,3135.85,0.0,1.0
24102902,ed_birds,7,test,9,assets\ed_birds\penguin_2.png,0,,3137.58,0.0,1.0
24102902,ed_birds,7,test,10,assets\ed_birds\ostrich_3.png,0,,3139.31,0.0,1.0
24102902,ed_birds,7,test,11,assets\ed_birds\eagle_3.png,0,,3141.05,0.0,1.0
24102902,ed_birds,7,test,12,assets\ed_birds\turkey_3.png,0,,3142.79,0.0,1.0
24102902,ed_birds,7,test,13,assets\ed_birds\pelican_3.png,0,,3144.52,0.0,1.0
24102902,ed_birds,7,test,14,assets\ed_birds\penguin_3.png,0,,3146.25,0.0,1.0
24102902,ed_birds,7,test,15,assets\ed_birds\rooster_1.png,0,,3147.99,0.0,1.0
24102902,ed_birds,7,test,16,assets\ed_birds\cardinal_1.png,0,,3149.72,0.0,1.0
24102902,ed_birds,7,test,17,assets\ed_birds\seagull_2.png,0,,3151.45,0.0,1.0
24102902,ed_birds,7,test,18,assets\ed_birds\eagle_2.png,0,,3153.18,0.0,1.0
24102902,ed_birds,7,test,19,assets\ed_birds\pigeon_2.png,0,,3154.91,0.0,1.0
24102902,ed_birds,7,test,20,assets\ed_birds\vulture_3.png,0,,3156.65,0.0,1.0
24102902,ed_birds,8,test,0,assets\ed_birds\flamingo_3.png,0,,3164.55,,
24102902,ed_birds,8,test,1,assets\ed_birds\peacock_1.png,0,,3166.29,0.0,1.0
24102902,ed_birds,8,test,2,assets\ed_birds\seagull_1.png,0,,3168.02,0.0,1.0
24102902,ed_birds,8,test,3,assets\ed_birds\penguin_1.png,0,,3169.75,0.0,1.0
24102902,ed_birds,8,test,4,assets\ed_birds\rooster_3.png,0,,3171.48,0.0,1.0
24102902,ed_birds,8,test,5,assets\ed_birds\cardinal_3.png,0,,3173.22,0.0,1.0
24102902,ed_birds,8,test,6,assets\ed_birds\hummingbird_1.png,0,,3174.95,0.0,1.0
24102902,ed_birds,8,test,7,assets\ed_birds\crow_2.png,0,,3176.69,0.0,1.0
24102902,ed_birds,8,test,8,assets\ed_birds\cardinal_2.png,0,,3178.43,0.0,1.0
24102902,ed_birds,8,test,9,assets\ed_birds\peacock_2.png,1,0.81,3180.17,0.0,0.0
24102902,ed_birds,8,test,10,assets\ed_birds\vulture_2.png,0,,3181.91,0.0,1.0
24102902,ed_birds,8,test,11,assets\ed_birds\duckling_2.png,0,,3183.64,0.0,1.0
24102902,ed_birds,8,test,12,assets\ed_birds\swan_2.png,0,,3185.38,0.0,1.0
24102902,ed_birds,8,test,13,assets\ed_birds\eagle_1.png,0,,3187.11,0.0,1.0
24102902,ed_birds,8,test,14,assets\ed_birds\pheasant_2.png,0,,3188.84,0.0,1.0
24102902,ed_birds,8,test,15,assets\ed_birds\pheasant_2.png,0,,3190.57,1.0,0.0
24102902,ed_birds,8,test,16,assets\ed_birds\crow_1.png,0,,3192.31,0.0,1.0
24102902,ed_birds,8,test,17,assets\ed_birds\crow_1.png,0,,3194.04,1.0,0.0
24102902,ed_birds,8,test,18,assets\ed_birds\flamingo_1.png,0,,3195.78,0.0,1.0
24102902,ed_birds,8,test,19,assets\ed_birds\swan_1.png,0,,3197.52,0.0,1.0
