subject,condition,block,procedure,trial,item,response,RT,time,correct,accuracy
24103002,ed_clothing,1,test,0,assets\ed_clothing\glove_1.png,0,,202.45,,
24103002,ed_clothing,1,test,1,assets\ed_clothing\glove_1.png,1,0.498,204.2,1.0,1.0
24103002,ed_clothing,1,test,2,assets\ed_clothing\lab_coat_2.png,0,,205.95,0.0,1.0
24103002,ed_clothing,1,test,3,assets\ed_clothing\lab_coat_2.png,1,0.386,207.68,1.0,1.0
24103002,ed_clothing,1,test,4,assets\ed_clothing\jumpsuit_2.png,0,,209.45,0.0,1.0
24103002,ed_clothing,1,test,5,assets\ed_clothing\robe_2.png,0,,211.46,0.0,1.0
24103002,ed_clothing,1,test,6,assets\ed_clothing\vest_1.png,0,,213.26,0.0,1.0
24103002,ed_clothing,1,test,7,assets\ed_clothing\leggings_3.png,0,,215.02,0.0,1.0
24103002,ed_clothing,1,test,8,assets\ed_clothing\blazer_1.png,0,,216.78,0.0,1.0
24103002,ed_clothing,1,test,9,assets\ed_clothing\corset_2.png,0,,218.62,0.0,1.0
24103002,ed_clothing,1,test,10,assets\ed_clothing\tube_top_3.png,0,,220.39,0.0,1.0
24103002,ed_clothing,1,test,11,assets\ed_clothing\jacket_1.png,0,,222.57,0.0,1.0
24103002,ed_clothing,1,test,12,assets\ed_clothing\jumpsuit_3.png,0,,224.7,0.0,1.0
24103002,ed_clothing,1,test,13,assets\ed_clothing\lab_coat_3.png,0,,226.47,0.0,1.0
24103002,ed_clothing,1,test,14,assets\ed_clothing\lab_coat_1.png,0,,228.22,0.0,1.0
24103002,ed_clothing,1,test,15,assets\ed_clothing\pajamas_1.png,0,,229.97,0.0,1.0
24103002,ed_clothing,1,test,16,assets\ed_clothing\cloak_1.png,0,,231.72,0.0,1.0
24103002,ed_clothing,1,test,17,assets\ed_clothing\jacket_3.png,0,,233.47,0.0,1.0
24103002,ed_clothing,1,test,18,assets\ed_clothing\glove_3.png,0,,235.38,0.0,1.0
24103002,ed_clothing,1,test,19,assets\ed_clothing\polo_shirt_2.png,0,,237.13,0.0,1.0
24103002,ed_clothing,1,test,20,assets\ed_clothing\jacket_2.png,0,,238.94,0.0,1.0
24103002,ed_clothing,2,test,0,assets\ed_clothing\nightshirt_2.png,0,,247.15,,
24103002,ed_clothing,2,test,1,assets\ed_clothing\vest_2.png,0,,248.91,0.0,1.0
24103002,ed_clothing,2,test,2,assets\ed_clothing\sock_1.png,0,,250.65,0.0,1.0
24103002,ed_clothing,2,test,3,assets\ed_clothing\leggings_2.png,0,,252.41,0.0,1.0
24103002,ed_clothing,2,test,4,assets\ed_clothing\leggings_2.png,1,0.517,254.15,1.0,1.0
24103002,ed_clothing,2,test,5,assets\ed_clothing\sock_3.png,0,,255.89,0.0,1.0
24103002,ed_clothing,2,test,6,assets\ed_clothing\sock_3.png,1,0.514,257.63,1.0,1.0
24103002,ed_clothing,2,test,7,assets\ed_clothing\hoodie_2.png,0,,259.39,0.0,1.0
24103002,ed_clothing,2,test,8,assets\ed_clothing\polo_shirt_3.png,0,,261.16,0.0,1.0
24103002,ed_clothing,2,test,9,assets\ed_clothing\hoodie_3.png,0,,262.91,0.0,1.0
24103002,ed_clothing,2,test,10,assets\ed_clothing\overalls_1.png,0,,264.65,0.0,1.0
24103002,ed_clothing,2,test,11,assets\ed_clothing\jumpsuit_1.png,0,,266.39,0.0,1.0
24103002,ed_clothing,2,test,12,assets\ed_clothing\vest_3.png,0,,268.13,0.0,1.0
24103002,ed_clothing,2,test,13,assets\ed_clothing\overalls_3.png,0,,269.88,0.0,1.0
24103002,ed_clothing,2,test,14,assets\ed_clothing\overalls_2.png,0,,271.62,0.0,1.0
24103002,ed_clothing,2,test,15,assets\ed_clothing\leggings_1.png,0,,273.36,0.0,1.0
24103002,ed_clothing,2,test,16,assets\ed_clothing\tube_top_2.png,0,,275.11,0.0,1.0
24103002,ed_clothing,2,test,17,assets\ed_clothing\glove_1.png,0,,276.85,0.0,1.0
24103002,ed_clothing,2,test,18,assets\ed_clothing\robe_3.png,0,,278.99,0.0,1.0
24103002,ed_clothing,2,test,19,assets\ed_clothing\blazer_2.png,0,,280.75,0.0,1.0
24103002,ed_clothing,2,test,20,assets\ed_clothing\swimsuit_2.png,0,,282.5,0.0,1.0
24103002,ed_clothing,3,test,0,assets\ed_clothing\polo_shirt_1.png,0,,290.81,,
24103002,ed_clothing,3,test,1,assets\ed_clothing\fur_coat_1.png,0,,292.61,0.0,1.0
24103002,ed_clothing,3,test,2,assets\ed_clothing\leggings_3.png,0,,294.36,0.0,1.0
24103002,ed_clothing,3,test,3,assets\ed_clothing\toga_1.png,0,,296.11,0.0,1.0
24103002,ed_clothing,3,test,4,assets\ed_clothing\sock_2.png,0,,297.94,0.0,1.0
24103002,ed_clothing,3,test,5,assets\ed_clothing\nightshirt_1.png,0,,299.68,0.0,1.0
24103002,ed_clothing,3,test,6,assets\ed_clothing\nightshirt_1.png,1,0.506,301.42,1.0,1.0
24103002,ed_clothing,3,test,7,assets\ed_clothing\pajamas_1.png,0,,303.16,0.0,1.0
24103002,ed_clothing,3,test,8,assets\ed_clothing\pajamas_1.png,1,0.392,304.9,1.0,1.0
24103002,ed_clothing,3,test,9,assets\ed_clothing\pajamas_3.png,0,,306.63,0.0,1.0
24103002,ed_clothing,3,test,10,assets\ed_clothing\blazer_1.png,0,,308.36,0.0,1.0
24103002,ed_clothing,3,test,11,assets\ed_clothing\jacket_3.png,0,,310.11,0.0,1.0
24103002,ed_clothing,3,test,12,assets\ed_clothing\hoodie_1.png,0,,311.87,0.0,1.0
24103002,ed_clothing,3,test,13,assets\ed_clothing\fur_coat_2.png,0,,313.61,0.0,1.0
24103002,ed_clothing,3,test,14,assets\ed_clothing\jacket_2.png,0,,315.41,0.0,1.0
24103002,ed_clothing,3,test,15,assets\ed_clothing\vest_2.png,0,,317.17,0.0,1.0
24103002,ed_clothing,3,test,16,assets\ed_clothing\jumpsuit_2.png,0,,318.94,0.0,1.0
24103002,ed_clothing,3,test,17,assets\ed_clothing\sock_1.png,0,,320.68,0.0,1.0
24103002,ed_clothing,3,test,18,assets\ed_clothing\toga_2.png,0,,322.45,0.0,1.0
24103002,ed_clothing,3,test,19,assets\ed_clothing\pajamas_2.png,0,,324.21,0.0,1.0
24103002,ed_clothing,3,test,20,assets\ed_clothing\robe_1.png,0,,326.22,0.0,1.0
24103002,ed_clothing,4,test,0,assets\ed_clothing\leggings_2.png,0,,334.02,,
24103002,ed_clothing,4,test,1,assets\ed_clothing\leggings_2.png,1,0.451,335.76,1.0,1.0
24103002,ed_clothing,4,test,2,assets\ed_clothing\lab_coat_3.png,0,,337.52,0.0,1.0
24103002,ed_clothing,4,test,3,assets\ed_clothing\polo_shirt_2.png,0,,339.26,0.0,1.0
24103002,ed_clothing,4,test,4,assets\ed_clothing\robe_2.png,0,,341.26,0.0,1.0
24103002,ed_clothing,4,test,5,assets\ed_clothing\vest_3.png,0,,343.0,0.0,1.0
24103002,ed_clothing,4,test,6,assets\ed_clothing\swimsuit_3.png,0,,344.78,0.0,1.0
24103002,ed_clothing,4,test,7,assets\ed_clothing\lab_coat_2.png,0,,346.51,0.0,1.0
24103002,ed_clothing,4,test,8,assets\ed_clothing\jumpsuit_3.png,0,,348.62,0.0,1.0
24103002,ed_clothing,4,test,9,assets\ed_clothing\leggings_1.png,0,,350.36,0.0,1.0
24103002,ed_clothing,4,test,10,assets\ed_clothing\corset_3.png,0,,352.28,0.0,1.0
24103002,ed_clothing,4,test,11,assets\ed_clothing\corset_3.png,1,0.513,354.15,1.0,1.0
24103002,ed_clothing,4,test,12,assets\ed_clothing\overalls_1.png,0,,355.88,0.0,1.0
24103002,ed_clothing,4,test,13,assets\ed_clothing\corset_2.png,0,,357.72,0.0,1.0
24103002,ed_clothing,4,test,14,assets\ed_clothing\lab_coat_1.png,0,,359.45,0.0,1.0
24103002,ed_clothing,4,test,15,assets\ed_clothing\glove_2.png,0,,361.44,0.0,1.0
24103002,ed_clothing,4,test,16,assets\ed_clothing\glove_1.png,0,,363.19,0.0,1.0
24103002,ed_clothing,4,test,17,assets\ed_clothing\cloak_2.png,0,,364.94,0.0,1.0
24103002,ed_clothing,4,test,18,assets\ed_clothing\swimsuit_1.png,0,,366.68,0.0,1.0
24103002,ed_clothing,4,test,19,assets\ed_clothing\blazer_3.png,0,,368.45,0.0,1.0
24103002,ed_clothing,4,test,20,assets\ed_clothing\glove_3.png,0,,370.43,0.0,1.0
24103002,ed_clothing,5,test,0,assets\ed_clothing\swimsuit_2.png,0,,377.98,,
24103002,ed_clothing,5,test,1,assets\ed_clothing\tube_top_3.png,0,,379.74,0.0,1.0
24103002,ed_clothing,5,test,2,assets\ed_clothing\blazer_2.png,0,,381.48,0.0,1.0
24103002,ed_clothing,5,test,3,assets\ed_clothing\overalls_2.png,0,,383.21,0.0,1.0
24103002,ed_clothing,5,test,4,assets\ed_clothing\pajamas_1.png,0,,384.95,0.0,1.0
24103002,ed_clothing,5,test,5,assets\ed_clothing\pajamas_1.png,1,0.522,386.69,1.0,1.0
24103002,ed_clothing,5,test,6,assets\ed_clothing\pajamas_1.png,1,0.642,388.42,1.0,1.0
24103002,ed_clothing,5,test,7,assets\ed_clothing\cloak_3.png,0,,390.25,0.0,1.0
24103002,ed_clothing,5,test,8,assets\ed_clothing\leggings_3.png,0,,392.0,0.0,1.0
24103002,ed_clothing,5,test,9,assets\ed_clothing\polo_shirt_1.png,0,,393.76,0.0,1.0
24103002,ed_clothing,5,test,10,assets\ed_clothing\jacket_2.png,0,,395.54,0.0,1.0
24103002,ed_clothing,5,test,11,assets\ed_clothing\toga_3.png,0,,397.28,0.0,1.0
24103002,ed_clothing,5,test,12,assets\ed_clothing\fur_coat_3.png,0,,399.14,0.0,1.0
24103002,ed_clothing,5,test,13,assets\ed_clothing\fur_coat_3.png,1,0.362,400.97,1.0,1.0
24103002,ed_clothing,5,test,14,assets\ed_clothing\hoodie_1.png,0,,402.71,0.0,1.0
24103002,ed_clothing,5,test,15,assets\ed_clothing\hoodie_1.png,1,0.374,404.45,1.0,1.0
24103002,ed_clothing,5,test,16,assets\ed_clothing\robe_3.png,0,,406.57,0.0,1.0
24103002,ed_clothing,5,test,17,assets\ed_clothing\nightshirt_1.png,0,,408.32,0.0,1.0
24103002,ed_clothing,5,test,18,assets\ed_clothing\robe_1.png,0,,410.32,0.0,1.0
24103002,ed_clothing,5,test,19,assets\ed_clothing\toga_2.png,0,,412.09,0.0,1.0
24103002,ed_clothing,5,test,20,assets\ed_clothing\vest_1.png,0,,413.88,0.0,1.0
24103002,ed_clothing,6,test,0,assets\ed_clothing\jacket_3.png,0,,421.45,,
24103002,ed_clothing,6,test,1,assets\ed_clothing\vest_3.png,0,,423.19,0.0,1.0
24103002,ed_clothing,6,test,2,assets\ed_clothing\leggings_2.png,0,,424.93,0.0,1.0
24103002,ed_clothing,6,test,3,assets\ed_clothing\jacket_1.png,0,,427.1,0.0,1.0
24103002,ed_clothing,6,test,4,assets\ed_clothing\overalls_3.png,0,,428.84,0.0,1.0
24103002,ed_clothing,6,test,5,assets\ed_clothing\robe_2.png,0,,430.84,0.0,1.0
24103002,ed_clothing,6,test,6,assets\ed_clothing\jumpsuit_3.png,0,,432.95,0.0,1.0
24103002,ed_clothing,6,test,7,assets\ed_clothing\jumpsuit_1.png,0,,434.69,0.0,1.0
24103002,ed_clothing,6,test,8,assets\ed_clothing\sock_3.png,0,,436.43,0.0,1.0
24103002,ed_clothing,6,test,9,assets\ed_clothing\sock_1.png,0,,438.17,0.0,1.0
24103002,ed_clothing,6,test,10,assets\ed_clothing\jumpsuit_2.png,0,,439.92,0.0,1.0
24103002,ed_clothing,6,test,11,assets\ed_clothing\jumpsuit_2.png,1,0.392,441.67,1.0,1.0
24103002,ed_clothing,6,test,12,assets\ed_clothing\swimsuit_3.png,0,,443.44,0.0,1.0
24103002,ed_clothing,6,test,13,assets\ed_clothing\nightshirt_3.png,0,,445.18,0.0,1.0
24103002,ed_clothing,6,test,14,assets\ed_clothing\lab_coat_2.png,0,,446.92,0.0,1.0
24103002,ed_clothing,6,test,15,assets\ed_clothing\sock_2.png,0,,448.73,0.0,1.0
24103002,ed_clothing,6,test,16,assets\ed_clothing\glove_1.png,0,,450.48,0.0,1.0
24103002,ed_clothing,6,test,17,assets\ed_clothing\lab_coat_3.png,0,,452.23,0.0,1.0
24103002,ed_clothing,6,test,18,assets\ed_clothing\lab_coat_3.png,1,0.437,454.0,1.0,1.0
24103002,ed_clothing,6,test,19,assets\ed_clothing\fur_coat_2.png,0,,455.73,0.0,1.0
24103002,ed_clothing,6,test,20,assets\ed_clothing\hoodie_3.png,0,,457.47,0.0,1.0
24103002,ed_clothing,7,test,0,assets\ed_clothing\tube_top_2.png,0,,465.49,,
24103002,ed_clothing,7,test,1,assets\ed_clothing\blazer_1.png,0,,467.22,0.0,1.0
24103002,ed_clothing,7,test,2,assets\ed_clothing\corset_3.png,0,,469.1,0.0,1.0
24103002,ed_clothing,7,test,3,assets\ed_clothing\overalls_1.png,0,,470.83,0.0,1.0
24103002,ed_clothing,7,test,4,assets\ed_clothing\leggings_3.png,0,,472.58,0.0,1.0
24103002,ed_clothing,7,test,5,assets\ed_clothing\glove_2.png,0,,474.53,0.0,1.0
24103002,ed_clothing,7,test,6,assets\ed_clothing\blazer_2.png,0,,476.27,0.0,1.0
24103002,ed_clothing,7,test,7,assets\ed_clothing\corset_2.png,0,,478.11,0.0,1.0
24103002,ed_clothing,7,test,8,assets\ed_clothing\jacket_2.png,0,,479.91,0.0,1.0
24103002,ed_clothing,7,test,9,assets\ed_clothing\pajamas_2.png,0,,481.66,0.0,1.0
24103002,ed_clothing,7,test,10,assets\ed_clothing\tube_top_3.png,0,,483.44,0.0,1.0
24103002,ed_clothing,7,test,11,assets\ed_clothing\lab_coat_1.png,0,,485.18,0.0,1.0
24103002,ed_clothing,7,test,12,assets\ed_clothing\polo_shirt_1.png,0,,486.93,0.0,1.0
24103002,ed_clothing,7,test,13,assets\ed_clothing\tube_top_1.png,0,,488.66,0.0,1.0
24103002,ed_clothing,7,test,14,assets\ed_clothing\cloak_3.png,0,,490.51,0.0,1.0
24103002,ed_clothing,7,test,15,assets\ed_clothing\glove_3.png,0,,492.42,0.0,1.0
24103002,ed_clothing,7,test,16,assets\ed_clothing\overalls_3.png,0,,494.16,0.0,1.0
24103002,ed_clothing,7,test,17,assets\ed_clothing\nightshirt_1.png,0,,495.91,0.0,1.0
24103002,ed_clothing,7,test,18,assets\ed_clothing\nightshirt_2.png,0,,497.64,0.0,1.0
24103002,ed_clothing,7,test,19,assets\ed_clothing\hoodie_1.png,0,,499.38,0.0,1.0
24103002,ed_clothing,7,test,20,assets\ed_clothing\pajamas_1.png,0,,501.12,0.0,1.0
24103002,ed_clothing,8,test,0,assets\ed_clothing\overalls_2.png,0,,508.71,,
24103002,ed_clothing,8,test,1,assets\ed_clothing\fur_coat_1.png,0,,510.49,0.0,1.0
24103002,ed_clothing,8,test,2,assets\ed_clothing\vest_2.png,0,,512.24,0.0,1.0
24103002,ed_clothing,8,test,3,assets\ed_clothing\robe_1.png,0,,514.22,0.0,1.0
24103002,ed_clothing,8,test,4,assets\ed_clothing\swimsuit_1.png,0,,515.96,0.0,1.0
24103002,ed_clothing,8,test,5,assets\ed_clothing\jacket_1.png,0,,518.1,0.0,1.0
24103002,ed_clothing,8,test,6,assets\ed_clothing\toga_3.png,0,,519.83,0.0,1.0
24103002,ed_clothing,8,test,7,assets\ed_clothing\toga_2.png,0,,521.59,0.0,1.0
24103002,ed_clothing,8,test,8,assets\ed_clothing\toga_2.png,1,0.524,523.34,1.0,1.0
24103002,ed_clothing,8,test,9,assets\ed_clothing\toga_1.png,0,,525.07,0.0,1.0
24103002,ed_clothing,8,test,10,assets\ed_clothing\toga_1.png,1,0.538,526.81,1.0,1.0
24103002,ed_clothing,8,test,11,assets\ed_clothing\toga_1.png,1,0.461,528.54,1.0,1.0
24103002,ed_clothing,8,test,12,assets\ed_clothing\hoodie_2.png,0,,530.29,0.0,1.0
24103002,ed_clothing,8,test,13,assets\ed_clothing\cloak_1.png,0,,532.04,0.0,1.0
24103002,ed_clothing,8,test,14,assets\ed_clothing\pajamas_3.png,0,,533.77,0.0,1.0
24103002,ed_clothing,8,test,15,assets\ed_clothing\robe_3.png,0,,535.81,0.0,1.0
24103002,ed_clothing,8,test,16,assets\ed_clothing\swimsuit_2.png,0,,537.58,0.0,1.0
24103002,ed_clothing,8,test,17,assets\ed_clothing\vest_1.png,0,,539.39,0.0,1.0
24103002,ed_clothing,8,test,18,assets\ed_clothing\vest_1.png,1,0.529,541.16,1.0,1.0
24103002,ed_clothing,8,test,19,assets\ed_clothing\fur_coat_3.png,0,,543.06,0.0,1.0
24103002,ed_clothing,8,test,20,assets\ed_clothing\glove_2.png,0,,545.06,0.0,1.0
24103002,ed_clothing,9,test,0,assets\ed_clothing\tube_top_2.png,0,,554.14,,
24103002,ed_clothing,9,test,1,assets\ed_clothing\lab_coat_2.png,0,,555.88,0.0,1.0
24103002,ed_clothing,9,test,2,assets\ed_clothing\overalls_1.png,0,,557.61,0.0,1.0
24103002,ed_clothing,9,test,3,assets\ed_clothing\overalls_1.png,1,0.775,559.35,1.0,1.0
24103002,ed_clothing,9,test,4,assets\ed_clothing\nightshirt_3.png,0,,561.09,0.0,1.0
24103002,ed_clothing,9,test,5,assets\ed_clothing\nightshirt_3.png,1,0.388,562.82,1.0,1.0
24103002,ed_clothing,9,test,6,assets\ed_clothing\hoodie_3.png,0,,564.57,0.0,1.0
24103002,ed_clothing,9,test,7,assets\ed_clothing\leggings_1.png,0,,566.32,0.0,1.0
24103002,ed_clothing,9,test,8,assets\ed_clothing\sock_2.png,0,,568.14,0.0,1.0
24103002,ed_clothing,9,test,9,assets\ed_clothing\jacket_3.png,0,,569.88,0.0,1.0
24103002,ed_clothing,9,test,10,assets\ed_clothing\polo_shirt_3.png,0,,571.64,0.0,1.0
24103002,ed_clothing,9,test,11,assets\ed_clothing\jacket_2.png,0,,573.42,0.0,1.0
24103002,ed_clothing,9,test,12,assets\ed_clothing\vest_3.png,0,,575.16,0.0,1.0
24103002,ed_clothing,9,test,13,assets\ed_clothing\jumpsuit_2.png,0,,576.92,0.0,1.0
24103002,ed_clothing,9,test,14,assets\ed_clothing\lab_coat_3.png,0,,578.68,0.0,1.0
24103002,ed_clothing,9,test,15,assets\ed_clothing\hoodie_1.png,1,0.48,580.44,0.0,0.0
24103002,ed_clothing,9,test,16,assets\ed_clothing\glove_3.png,0,,582.36,0.0,1.0
24103002,ed_clothing,9,test,17,assets\ed_clothing\lab_coat_1.png,0,,584.12,0.0,1.0
24103002,ed_clothing,9,test,18,assets\ed_clothing\overalls_2.png,0,,585.87,0.0,1.0
24103002,ed_clothing,9,test,19,assets\ed_clothing\tube_top_3.png,0,,587.66,0.0,1.0
24103002,ed_clothing,9,test,20,assets\ed_clothing\blazer_3.png,0,,589.41,0.0,1.0
24103002,ed_clothing,10,test,0,assets\ed_clothing\cloak_3.png,0,,597.0,,
24103002,ed_clothing,10,test,1,assets\ed_clothing\leggings_2.png,0,,598.76,0.0,1.0
24103002,ed_clothing,10,test,2,assets\ed_clothing\corset_3.png,0,,600.68,0.0,1.0
24103002,ed_clothing,10,test,3,assets\ed_clothing\corset_3.png,1,0.531,602.55,1.0,1.0
24103002,ed_clothing,10,test,4,assets\ed_clothing\jacket_1.png,0,,604.73,0.0,1.0
24103002,ed_clothing,10,test,5,assets\ed_clothing\robe_1.png,0,,606.75,0.0,1.0
24103002,ed_clothing,10,test,6,assets\ed_clothing\pajamas_2.png,0,,608.5,0.0,1.0
24103002,ed_clothing,10,test,7,assets\ed_clothing\cloak_1.png,0,,610.24,0.0,1.0
24103002,ed_clothing,10,test,8,assets\ed_clothing\fur_coat_2.png,0,,611.99,0.0,1.0
24103002,ed_clothing,10,test,9,assets\ed_clothing\fur_coat_1.png,0,,613.77,0.0,1.0
24103002,ed_clothing,10,test,10,assets\ed_clothing\nightshirt_2.png,0,,615.51,0.0,1.0
24103002,ed_clothing,10,test,11,assets\ed_clothing\corset_2.png,0,,617.35,0.0,1.0
24103002,ed_clothing,10,test,12,assets\ed_clothing\cloak_2.png,0,,619.09,0.0,1.0
24103002,ed_clothing,10,test,13,assets\ed_clothing\cloak_2.png,1,0.654,620.83,1.0,1.0
24103002,ed_clothing,10,test,14,assets\ed_clothing\robe_2.png,0,,622.84,0.0,1.0
24103002,ed_clothing,10,test,15,assets\ed_clothing\leggings_3.png,0,,624.61,0.0,1.0
24103002,ed_clothing,10,test,16,assets\ed_clothing\sock_1.png,0,,626.35,0.0,1.0
24103002,ed_clothing,10,test,17,assets\ed_clothing\fur_coat_3.png,0,,628.24,0.0,1.0
24103002,ed_clothing,10,test,18,assets\ed_clothing\toga_3.png,0,,630.0,0.0,1.0
24103002,ed_clothing,10,test,19,assets\ed_clothing\toga_1.png,0,,631.74,0.0,1.0
24103002,ed_clothing,10,test,20,assets\ed_clothing\corset_1.png,0,,633.56,0.0,1.0
24103002,ed_fruits,1,test,0,assets\ed_fruits\pineapple_3.png,0,,668.54,,
24103002,ed_fruits,1,test,1,assets\ed_fruits\mango_2.png,0,,670.66,0.0,1.0
24103002,ed_fruits,1,test,2,assets\ed_fruits\pear_2.png,0,,672.4,0.0,1.0
24103002,ed_fruits,1,test,3,assets\ed_fruits\raspberry_1.png,0,,674.15,0.0,1.0
24103002,ed_fruits,1,test,4,assets\ed_fruits\star_fruit_3.png,0,,675.89,0.0,1.0
24103002,ed_fruits,1,test,5,assets\ed_fruits\mulberry_1.png,0,,677.63,0.0,1.0
24103002,ed_fruits,1,test,6,assets\ed_fruits\melon_2.png,0,,679.38,0.0,1.0
24103002,ed_fruits,1,test,7,assets\ed_fruits\watermelon_1.png,0,,681.13,0.0,1.0
24103002,ed_fruits,1,test,8,assets\ed_fruits\mulberry_3.png,0,,682.89,0.0,1.0
24103002,ed_fruits,1,test,9,assets\ed_fruits\star_fruit_1.png,0,,684.64,0.0,1.0
24103002,ed_fruits,1,test,10,assets\ed_fruits\blueberry_1.png,0,,686.42,0.0,1.0
24103002,ed_fruits,1,test,11,assets\ed_fruits\pomegranate_2.png,0,,688.22,0.0,1.0
24103002,ed_fruits,1,test,12,assets\ed_fruits\cranberry_3.png,0,,690.01,0.0,1.0
24103002,ed_fruits,1,test,13,assets\ed_fruits\cranberry_2.png,0,,691.75,0.0,1.0
24103002,ed_fruits,1,test,14,assets\ed_fruits\mulberry_2.png,0,,693.56,0.0,1.0
24103002,ed_fruits,1,test,15,assets\ed_fruits\blueberry_2.png,0,,695.37,0.0,1.0
24103002,ed_fruits,1,test,16,assets\ed_fruits\papaya_3.png,0,,697.13,0.0,1.0
24103002,ed_fruits,1,test,17,assets\ed_fruits\melon_3.png,0,,698.89,0.0,1.0
24103002,ed_fruits,1,test,18,assets\ed_fruits\pear_1.png,0,,700.63,0.0,1.0
24103002,ed_fruits,1,test,19,assets\ed_fruits\pear_1.png,1,0.644,702.37,1.0,1.0
24103002,ed_fruits,1,test,20,assets\ed_fruits\cantaloupe_3.png,0,,704.11,0.0,1.0
24103002,ed_fruits,2,test,0,assets\ed_fruits\mango_3.png,0,,713.22,,
24103002,ed_fruits,2,test,1,assets\ed_fruits\mango_3.png,1,0.394,714.98,1.0,1.0
24103002,ed_fruits,2,test,2,assets\ed_fruits\blackberry_3.png,0,,716.72,0.0,1.0
24103002,ed_fruits,2,test,3,assets\ed_fruits\blueberry_3.png,0,,718.45,0.0,1.0
24103002,ed_fruits,2,test,4,assets\ed_fruits\grapefruit_3.png,0,,720.24,0.0,1.0
24103002,ed_fruits,2,test,5,assets\ed_fruits\kiwi_1.png,0,,721.98,0.0,1.0
24103002,ed_fruits,2,test,6,assets\ed_fruits\kiwi_2.png,0,,723.73,0.0,1.0
24103002,ed_fruits,2,test,7,assets\ed_fruits\raspberry_3.png,0,,725.48,0.0,1.0
24103002,ed_fruits,2,test,8,assets\ed_fruits\apple_1.png,0,,727.22,0.0,1.0
24103002,ed_fruits,2,test,9,assets\ed_fruits\apple_1.png,1,0.504,728.96,1.0,1.0
24103002,ed_fruits,2,test,10,assets\ed_fruits\apple_1.png,1,0.508,730.7,1.0,1.0
24103002,ed_fruits,2,test,11,assets\ed_fruits\peach_1.png,0,,732.44,0.0,1.0
24103002,ed_fruits,2,test,12,assets\ed_fruits\blackberry_2.png,0,,734.17,0.0,1.0
24103002,ed_fruits,2,test,13,assets\ed_fruits\pear_3.png,0,,735.91,0.0,1.0
24103002,ed_fruits,2,test,14,assets\ed_fruits\pineapple_3.png,0,,737.86,0.0,1.0
24103002,ed_fruits,2,test,15,assets\ed_fruits\apple_2.png,0,,739.79,0.0,1.0
24103002,ed_fruits,2,test,16,assets\ed_fruits\watermelon_3.png,0,,741.57,0.0,1.0
24103002,ed_fruits,2,test,17,assets\ed_fruits\watermelon_3.png,1,0.49,743.33,1.0,1.0
24103002,ed_fruits,2,test,18,assets\ed_fruits\star_fruit_2.png,0,,745.08,0.0,1.0
24103002,ed_fruits,2,test,19,assets\ed_fruits\pomegranate_1.png,0,,746.83,0.0,1.0
24103002,ed_fruits,2,test,20,assets\ed_fruits\kiwi_3.png,0,,748.57,0.0,1.0
24103002,ed_fruits,3,test,0,assets\ed_fruits\grapefruit_1.png,0,,756.32,,
24103002,ed_fruits,3,test,1,assets\ed_fruits\melon_1.png,0,,758.08,0.0,1.0
24103002,ed_fruits,3,test,2,assets\ed_fruits\papaya_2.png,0,,759.82,0.0,1.0
24103002,ed_fruits,3,test,3,assets\ed_fruits\watermelon_1.png,0,,761.56,0.0,1.0
24103002,ed_fruits,3,test,4,assets\ed_fruits\melon_2.png,0,,763.31,0.0,1.0
24103002,ed_fruits,3,test,5,assets\ed_fruits\pear_2.png,0,,765.05,0.0,1.0
24103002,ed_fruits,3,test,6,assets\ed_fruits\pomegranate_3.png,0,,766.8,0.0,1.0
24103002,ed_fruits,3,test,7,assets\ed_fruits\mango_1.png,0,,768.57,0.0,1.0
24103002,ed_fruits,3,test,8,assets\ed_fruits\peach_3.png,0,,770.31,0.0,1.0
24103002,ed_fruits,3,test,9,assets\ed_fruits\cranberry_1.png,0,,772.08,0.0,1.0
24103002,ed_fruits,3,test,10,assets\ed_fruits\mulberry_1.png,0,,773.81,0.0,1.0
24103002,ed_fruits,3,test,11,assets\ed_fruits\melon_3.png,0,,775.56,0.0,1.0
24103002,ed_fruits,3,test,12,assets\ed_fruits\cantaloupe_2.png,0,,777.3,0.0,1.0
24103002,ed_fruits,3,test,13,assets\ed_fruits\peach_2.png,0,,779.05,0.0,1.0
24103002,ed_fruits,3,test,14,assets\ed_fruits\cranberry_3.png,0,,780.82,0.0,1.0
24103002,ed_fruits,3,test,15,assets\ed_fruits\pear_1.png,0,,782.56,0.0,1.0
24103002,ed_fruits,3,test,16,assets\ed_fruits\lemon_1.png,0,,784.31,0.0,1.0
24103002,ed_fruits,3,test,17,assets\ed_fruits\lemon_3.png,0,,786.04,0.0,1.0
24103002,ed_fruits,3,test,18,assets\ed_fruits\pineapple_1.png,0,,787.89,0.0,1.0
24103002,ed_fruits,3,test,19,assets\ed_fruits\papaya_3.png,0,,789.64,0.0,1.0
24103002,ed_fruits,3,test,20,assets\ed_fruits\prune_3.png,0,,791.42,0.0,1.0
24103002,ed_fruits,4,test,0,assets\ed_fruits\apple_1.png,0,,798.87,,
24103002,ed_fruits,4,test,1,assets\ed_fruits\mango_2.png,0,,800.88,0.0,1.0
24103002,ed_fruits,4,test,2,assets\ed_fruits\raspberry_2.png,0,,802.62,0.0,1.0
24103002,ed_fruits,4,test,3,assets\ed_fruits\star_fruit_3.png,0,,804.36,0.0,1.0
24103002,ed_fruits,4,test,4,assets\ed_fruits\cranberry_2.png,0,,806.09,0.0,1.0
24103002,ed_fruits,4,test,5,assets\ed_fruits\blackberry_2.png,0,,807.82,0.0,1.0
24103002,ed_fruits,4,test,6,assets\ed_fruits\watermelon_3.png,0,,809.58,0.0,1.0
24103002,ed_fruits,4,test,7,assets\ed_fruits\blueberry_3.png,0,,811.31,0.0,1.0
24103002,ed_fruits,4,test,8,assets\ed_fruits\blackberry_3.png,0,,813.04,0.0,1.0
24103002,ed_fruits,4,test,9,assets\ed_fruits\mango_3.png,0,,814.81,0.0,1.0
24103002,ed_fruits,4,test,10,assets\ed_fruits\pineapple_2.png,0,,816.75,0.0,1.0
24103002,ed_fruits,4,test,11,assets\ed_fruits\raspberry_1.png,0,,818.49,0.0,1.0
24103002,ed_fruits,4,test,12,assets\ed_fruits\apple_3.png,0,,820.24,0.0,1.0
24103002,ed_fruits,4,test,13,assets\ed_fruits\pomegranate_1.png,0,,821.98,0.0,1.0
24103002,ed_fruits,4,test,14,assets\ed_fruits\cantaloupe_1.png,0,,823.73,0.0,1.0
24103002,ed_fruits,4,test,15,assets\ed_fruits\blueberry_2.png,0,,825.56,0.0,1.0
24103002,ed_fruits,4,test,16,assets\ed_fruits\lemon_2.png,0,,827.31,0.0,1.0
24103002,ed_fruits,4,test,17,assets\ed_fruits\apple_2.png,0,,829.25,0.0,1.0
24103002,ed_fruits,4,test,18,assets\ed_fruits\kiwi_1.png,0,,830.99,0.0,1.0
24103002,ed_fruits,4,test,19,assets\ed_fruits\star_fruit_1.png,0,,832.73,0.0,1.0
24103002,ed_fruits,4,test,20,assets\ed_fruits\mulberry_1.png,0,,834.46,0.0,1.0
24103002,ed_fruits,5,test,0,assets\ed_fruits\blackberry_1.png,0,,842.4,,
24103002,ed_fruits,5,test,1,assets\ed_fruits\watermelon_2.png,0,,844.14,0.0,1.0
24103002,ed_fruits,5,test,2,assets\ed_fruits\papaya_1.png,0,,845.88,0.0,1.0
24103002,ed_fruits,5,test,3,assets\ed_fruits\papaya_1.png,1,0.537,847.62,1.0,1.0
24103002,ed_fruits,5,test,4,assets\ed_fruits\melon_1.png,0,,849.36,0.0,1.0
24103002,ed_fruits,5,test,5,assets\ed_fruits\grapefruit_3.png,0,,851.15,0.0,1.0
24103002,ed_fruits,5,test,6,assets\ed_fruits\grapefruit_3.png,1,0.533,852.93,1.0,1.0
24103002,ed_fruits,5,test,7,assets\ed_fruits\blueberry_1.png,0,,854.71,0.0,1.0
24103002,ed_fruits,5,test,8,assets\ed_fruits\lemon_3.png,0,,856.44,0.0,1.0
24103002,ed_fruits,5,test,9,assets\ed_fruits\pear_1.png,0,,858.17,0.0,1.0
24103002,ed_fruits,5,test,10,assets\ed_fruits\grapefruit_2.png,0,,859.95,0.0,1.0
24103002,ed_fruits,5,test,11,assets\ed_fruits\grapefruit_2.png,1,0.557,861.72,1.0,1.0
24103002,ed_fruits,5,test,12,assets\ed_fruits\prune_2.png,0,,863.95,0.0,1.0
24103002,ed_fruits,5,test,13,assets\ed_fruits\cantaloupe_3.png,0,,865.69,0.0,1.0
24103002,ed_fruits,5,test,14,assets\ed_fruits\mango_2.png,0,,867.79,0.0,1.0
24103002,ed_fruits,5,test,15,assets\ed_fruits\mango_1.png,0,,869.57,0.0,1.0
24103002,ed_fruits,5,test,16,assets\ed_fruits\pomegranate_2.png,0,,871.36,0.0,1.0
24103002,ed_fruits,5,test,17,assets\ed_fruits\lemon_1.png,0,,873.11,0.0,1.0
24103002,ed_fruits,5,test,18,assets\ed_fruits\raspberry_2.png,0,,874.84,0.0,1.0
24103002,ed_fruits,5,test,19,assets\ed_fruits\mulberry_2.png,0,,876.63,0.0,1.0
24103002,ed_fruits,5,test,20,assets\ed_fruits\melon_2.png,0,,878.39,0.0,1.0
24103002,ed_fruits,6,test,0,assets\ed_fruits\cranberry_2.png,0,,885.78,,
24103002,ed_fruits,6,test,1,assets\ed_fruits\pear_2.png,0,,887.51,0.0,1.0
24103002,ed_fruits,6,test,2,assets\ed_fruits\pear_2.png,1,0.669,889.25,1.0,1.0
24103002,ed_fruits,6,test,3,assets\ed_fruits\peach_2.png,0,,890.99,0.0,1.0
24103002,ed_fruits,6,test,4,assets\ed_fruits\blackberry_3.png,0,,892.71,0.0,1.0
24103002,ed_fruits,6,test,5,assets\ed_fruits\blackberry_3.png,1,0.595,894.44,1.0,1.0
24103002,ed_fruits,6,test,6,assets\ed_fruits\prune_1.png,0,,896.19,0.0,1.0
24103002,ed_fruits,6,test,7,assets\ed_fruits\pineapple_2.png,0,,898.07,0.0,1.0
24103002,ed_fruits,6,test,8,assets\ed_fruits\mango_3.png,0,,899.82,0.0,1.0
24103002,ed_fruits,6,test,9,assets\ed_fruits\star_fruit_2.png,0,,901.56,0.0,1.0
24103002,ed_fruits,6,test,10,assets\ed_fruits\kiwi_2.png,0,,903.3,0.0,1.0
24103002,ed_fruits,6,test,11,assets\ed_fruits\apple_1.png,0,,905.04,0.0,1.0
24103002,ed_fruits,6,test,12,assets\ed_fruits\star_fruit_3.png,0,,906.77,0.0,1.0
24103002,ed_fruits,6,test,13,assets\ed_fruits\cranberry_3.png,0,,908.55,0.0,1.0
24103002,ed_fruits,6,test,14,assets\ed_fruits\papaya_3.png,0,,910.3,0.0,1.0
24103002,ed_fruits,6,test,15,assets\ed_fruits\pomegranate_1.png,0,,912.04,0.0,1.0
24103002,ed_fruits,6,test,16,assets\ed_fruits\peach_1.png,0,,913.78,0.0,1.0
24103002,ed_fruits,6,test,17,assets\ed_fruits\watermelon_3.png,0,,915.55,0.0,1.0
24103002,ed_fruits,6,test,18,assets\ed_fruits\pineapple_1.png,0,,917.39,0.0,1.0
24103002,ed_fruits,6,test,19,assets\ed_fruits\watermelon_1.png,0,,919.13,0.0,1.0
24103002,ed_fruits,6,test,20,assets\ed_fruits\watermelon_2.png,0,,920.86,0.0,1.0
24103002,ed_fruits,7,test,0,assets\ed_fruits\melon_3.png,0,,928.35,,
24103002,ed_fruits,7,test,1,assets\ed_fruits\papaya_2.png,0,,930.09,0.0,1.0
24103002,ed_fruits,7,test,2,assets\ed_fruits\apple_3.png,0,,931.83,0.0,1.0
24103002,ed_fruits,7,test,3,assets\ed_fruits\apple_3.png,1,0.559,933.56,1.0,1.0
24103002,ed_fruits,7,test,4,assets\ed_fruits\blueberry_1.png,0,,935.34,0.0,1.0
24103002,ed_fruits,7,test,5,assets\ed_fruits\star_fruit_1.png,0,,937.08,0.0,1.0
24103002,ed_fruits,7,test,6,assets\ed_fruits\cantaloupe_1.png,0,,938.82,0.0,1.0
24103002,ed_fruits,7,test,7,assets\ed_fruits\raspberry_1.png,0,,940.56,0.0,1.0
24103002,ed_fruits,7,test,8,assets\ed_fruits\blueberry_3.png,0,,942.29,0.0,1.0
24103002,ed_fruits,7,test,9,assets\ed_fruits\grapefruit_2.png,0,,944.06,0.0,1.0
24103002,ed_fruits,7,test,10,assets\ed_fruits\blackberry_2.png,0,,945.79,0.0,1.0
24103002,ed_fruits,7,test,11,assets\ed_fruits\pear_3.png,0,,947.52,0.0,1.0
24103002,ed_fruits,7,test,12,assets\ed_fruits\melon_1.png,0,,949.27,0.0,1.0
24103002,ed_fruits,7,test,13,assets\ed_fruits\mango_2.png,0,,951.28,0.0,1.0
24103002,ed_fruits,7,test,14,assets\ed_fruits\pomegranate_2.png,0,,953.1,0.0,1.0
24103002,ed_fruits,7,test,15,assets\ed_fruits\pear_1.png,0,,954.83,0.0,1.0
24103002,ed_fruits,7,test,16,assets\ed_fruits\kiwi_3.png,0,,956.57,0.0,1.0
24103002,ed_fruits,7,test,17,assets\ed_fruits\prune_1.png,0,,958.31,0.0,1.0
24103002,ed_fruits,7,test,18,assets\ed_fruits\papaya_1.png,0,,960.05,0.0,1.0
24103002,ed_fruits,7,test,19,assets\ed_fruits\prune_3.png,0,,961.84,0.0,1.0
24103002,ed_fruits,7,test,20,assets\ed_fruits\prune_3.png,1,0.843,963.61,1.0,1.0
24103002,ed_fruits,8,test,0,assets\ed_fruits\cantaloupe_2.png,0,,971.15,,
24103002,ed_fruits,8,test,1,assets\ed_fruits\peach_3.png,0,,972.89,0.0,1.0
24103002,ed_fruits,8,test,2,assets\ed_fruits\lemon_3.png,0,,974.62,0.0,1.0
24103002,ed_fruits,8,test,3,assets\ed_fruits\lemon_2.png,0,,976.36,0.0,1.0
24103002,ed_fruits,8,test,4,assets\ed_fruits\lemon_2.png,1,0.512,978.1,1.0,1.0
24103002,ed_fruits,8,test,5,assets\ed_fruits\kiwi_2.png,0,,979.84,0.0,1.0
24103002,ed_fruits,8,test,6,assets\ed_fruits\mango_3.png,0,,981.6,0.0,1.0
24103002,ed_fruits,8,test,7,assets\ed_fruits\grapefruit_1.png,0,,983.37,0.0,1.0
24103002,ed_fruits,8,test,8,assets\ed_fruits\blueberry_2.png,0,,985.18,0.0,1.0
24103002,ed_fruits,8,test,9,assets\ed_fruits\cranberry_1.png,0,,986.95,0.0,1.0
24103002,ed_fruits,8,test,10,assets\ed_fruits\star_fruit_2.png,0,,988.69,0.0,1.0
24103002,ed_fruits,8,test,11,assets\ed_fruits\blackberry_1.png,0,,990.42,0.0,1.0
24103002,ed_fruits,8,test,12,assets\ed_fruits\apple_1.png,0,,992.17,0.0,1.0
24103002,ed_fruits,8,test,13,assets\ed_fruits\apple_1.png,1,0.43,993.91,1.0,1.0
24103002,ed_fruits,8,test,14,assets\ed_fruits\grapefruit_3.png,0,,995.7,0.0,1.0
24103002,ed_fruits,8,test,15,assets\ed_fruits\mulberry_2.png,0,,997.49,0.0,1.0
24103002,ed_fruits,8,test,16,assets\ed_fruits\mulberry_3.png,0,,999.26,0.0,1.0
24103002,ed_fruits,8,test,17,assets\ed_fruits\cranberry_2.png,0,,1000.99,0.0,1.0
24103002,ed_fruits,8,test,18,assets\ed_fruits\mulberry_1.png,0,,1002.72,0.0,1.0
24103002,ed_fruits,8,test,19,assets\ed_fruits\mulberry_1.png,1,0.533,1004.45,1.0,1.0
24103002,ed_fruits,8,test,20,assets\ed_fruits\pineapple_3.png,0,,1006.4,0.0,1.0
24103002,ed_fruits,9,test,0,assets\ed_fruits\peach_1.png,0,,1013.8,,
24103002,ed_fruits,9,test,1,assets\ed_fruits\star_fruit_3.png,0,,1015.53,0.0,1.0
24103002,ed_fruits,9,test,2,assets\ed_fruits\star_fruit_3.png,1,0.684,1017.26,1.0,1.0
24103002,ed_fruits,9,test,3,assets\ed_fruits\raspberry_3.png,0,,1019.01,0.0,1.0
24103002,ed_fruits,9,test,4,assets\ed_fruits\melon_3.png,0,,1020.76,0.0,1.0
24103002,ed_fruits,9,test,5,assets\ed_fruits\melon_3.png,1,0.456,1022.51,1.0,1.0
24103002,ed_fruits,9,test,6,assets\ed_fruits\melon_3.png,1,0.536,1024.27,1.0,1.0
24103002,ed_fruits,9,test,7,assets\ed_fruits\lemon_1.png,0,,1026.01,0.0,1.0
24103002,ed_fruits,9,test,8,assets\ed_fruits\blackberry_3.png,0,,1027.74,0.0,1.0
24103002,ed_fruits,9,test,9,assets\ed_fruits\apple_2.png,0,,1029.68,0.0,1.0
24103002,ed_fruits,9,test,10,assets\ed_fruits\watermelon_3.png,0,,1031.45,0.0,1.0
24103002,ed_fruits,9,test,11,assets\ed_fruits\cantaloupe_3.png,0,,1033.19,0.0,1.0
24103002,ed_fruits,9,test,12,assets\ed_fruits\prune_2.png,0,,1035.44,0.0,1.0
24103002,ed_fruits,9,test,13,assets\ed_fruits\apple_3.png,0,,1037.18,0.0,1.0
24103002,ed_fruits,9,test,14,assets\ed_fruits\mango_1.png,0,,1038.96,0.0,1.0
24103002,ed_fruits,9,test,15,assets\ed_fruits\papaya_1.png,0,,1040.7,0.0,1.0
24103002,ed_fruits,9,test,16,assets\ed_fruits\kiwi_3.png,0,,1042.44,0.0,1.0
24103002,ed_fruits,9,test,17,assets\ed_fruits\kiwi_3.png,1,0.573,1044.18,1.0,1.0
24103002,ed_fruits,9,test,18,assets\ed_fruits\pear_3.png,0,,1045.92,0.0,1.0
24103002,ed_fruits,9,test,19,assets\ed_fruits\pear_1.png,0,,1047.65,0.0,1.0
24103002,ed_fruits,9,test,20,assets\ed_fruits\raspberry_2.png,0,,1049.38,0.0,1.0
24103002,ed_fruits,10,test,0,assets\ed_fruits\watermelon_1.png,0,,1056.7,,
24103002,ed_fruits,10,test,1,assets\ed_fruits\mango_3.png,0,,1058.46,0.0,1.0
24103002,ed_fruits,10,test,2,assets\ed_fruits\kiwi_2.png,0,,1060.2,0.0,1.0
24103002,ed_fruits,10,test,3,assets\ed_fruits\kiwi_2.png,1,0.554,1061.94,1.0,1.0
24103002,ed_fruits,10,test,4,assets\ed_fruits\papaya_2.png,0,,1063.67,0.0,1.0
24103002,ed_fruits,10,test,5,assets\ed_fruits\blueberry_3.png,0,,1065.4,0.0,1.0
24103002,ed_fruits,10,test,6,assets\ed_fruits\star_fruit_2.png,0,,1067.14,0.0,1.0
24103002,ed_fruits,10,test,7,assets\ed_fruits\prune_1.png,0,,1068.88,0.0,1.0
24103002,ed_fruits,10,test,8,assets\ed_fruits\lemon_3.png,0,,1070.62,0.0,1.0
24103002,ed_fruits,10,test,9,assets\ed_fruits\melon_1.png,0,,1072.36,0.0,1.0
24103002,ed_fruits,10,test,10,assets\ed_fruits\cantaloupe_1.png,0,,1074.1,0.0,1.0
24103002,ed_fruits,10,test,11,assets\ed_fruits\lemon_2.png,0,,1075.84,0.0,1.0
24103002,ed_fruits,10,test,12,assets\ed_fruits\pomegranate_3.png,0,,1077.58,0.0,1.0
24103002,ed_fruits,10,test,13,assets\ed_fruits\pomegranate_3.png,1,0.605,1079.31,1.0,1.0
24103002,ed_fruits,10,test,14,assets\ed_fruits\blueberry_2.png,0,,1081.12,0.0,1.0
24103002,ed_fruits,10,test,15,assets\ed_fruits\grapefruit_1.png,0,,1082.92,0.0,1.0
24103002,ed_fruits,10,test,16,assets\ed_fruits\mulberry_1.png,0,,1084.65,0.0,1.0
24103002,ed_fruits,10,test,17,assets\ed_fruits\cranberry_3.png,0,,1086.42,0.0,1.0
24103002,ed_fruits,10,test,18,assets\ed_fruits\pineapple_3.png,0,,1088.37,0.0,1.0
24103002,ed_fruits,10,test,19,assets\ed_fruits\raspberry_1.png,0,,1090.11,0.0,1.0
24103002,ed_fruits,10,test,20,assets\ed_fruits\pomegranate_1.png,0,,1091.85,0.0,1.0
24103002,ed_vegetables,1,test,0,assets\ed_vegetables\scallion_2.png,0,,1110.76,,
24103002,ed_vegetables,1,test,1,assets\ed_vegetables\rhubarb_3.png,0,,1112.6,0.0,1.0
24103002,ed_vegetables,1,test,2,assets\ed_vegetables\gourd_2.png,0,,1114.35,0.0,1.0
24103002,ed_vegetables,1,test,3,assets\ed_vegetables\brussels_sprouts_1.png,0,,1116.09,0.0,1.0
24103002,ed_vegetables,1,test,4,assets\ed_vegetables\corn_3.png,0,,1117.84,0.0,1.0
24103002,ed_vegetables,1,test,5,assets\ed_vegetables\arugula_1.png,0,,1119.6,0.0,1.0
24103002,ed_vegetables,1,test,6,assets\ed_vegetables\cucumber_3.png,0,,1121.37,0.0,1.0
24103002,ed_vegetables,1,test,7,assets\ed_vegetables\radish_2.png,0,,1123.1,0.0,1.0
24103002,ed_vegetables,1,test,8,assets\ed_vegetables\jalapeno_1.png,0,,1124.84,0.0,1.0
24103002,ed_vegetables,1,test,9,assets\ed_vegetables\bok_choy_1.png,0,,1126.59,0.0,1.0
24103002,ed_vegetables,1,test,10,assets\ed_vegetables\brussels_sprouts_3.png,0,,1128.35,0.0,1.0
24103002,ed_vegetables,1,test,11,assets\ed_vegetables\brussels_sprouts_3.png,1,0.591,1130.09,1.0,1.0
24103002,ed_vegetables,1,test,12,assets\ed_vegetables\green_beans_1.png,0,,1131.84,0.0,1.0
24103002,ed_vegetables,1,test,13,assets\ed_vegetables\bell_pepper_2.png,0,,1133.58,0.0,1.0
24103002,ed_vegetables,1,test,14,assets\ed_vegetables\radish_3.png,0,,1135.33,0.0,1.0
24103002,ed_vegetables,1,test,15,assets\ed_vegetables\chive_1.png,0,,1137.07,0.0,1.0
24103002,ed_vegetables,1,test,16,assets\ed_vegetables\arugula_3.png,0,,1138.82,0.0,1.0
24103002,ed_vegetables,1,test,17,assets\ed_vegetables\chive_2.png,0,,1140.56,0.0,1.0
24103002,ed_vegetables,1,test,18,assets\ed_vegetables\gourd_1.png,0,,1142.6,0.0,1.0
24103002,ed_vegetables,1,test,19,assets\ed_vegetables\brussels_sprouts_2.png,0,,1144.35,0.0,1.0
24103002,ed_vegetables,1,test,20,assets\ed_vegetables\chive_3.png,0,,1146.11,0.0,1.0
24103002,ed_vegetables,2,test,0,assets\ed_vegetables\beet_2.png,0,,1153.95,,
24103002,ed_vegetables,2,test,1,assets\ed_vegetables\artichoke_3.png,0,,1155.69,0.0,1.0
24103002,ed_vegetables,2,test,2,assets\ed_vegetables\beet_1.png,0,,1157.44,0.0,1.0
24103002,ed_vegetables,2,test,3,assets\ed_vegetables\cauliflower_1.png,0,,1159.18,0.0,1.0
24103002,ed_vegetables,2,test,4,assets\ed_vegetables\green_beans_3.png,0,,1160.92,0.0,1.0
24103002,ed_vegetables,2,test,5,assets\ed_vegetables\onion_3.png,0,,1162.68,0.0,1.0
24103002,ed_vegetables,2,test,6,assets\ed_vegetables\onion_3.png,1,0.615,1164.43,1.0,1.0
24103002,ed_vegetables,2,test,7,assets\ed_vegetables\beet_3.png,0,,1166.17,0.0,1.0
24103002,ed_vegetables,2,test,8,assets\ed_vegetables\rhubarb_1.png,0,,1167.91,0.0,1.0
24103002,ed_vegetables,2,test,9,assets\ed_vegetables\onion_1.png,0,,1169.64,0.0,1.0
24103002,ed_vegetables,2,test,10,assets\ed_vegetables\green_beans_2.png,0,,1171.39,0.0,1.0
24103002,ed_vegetables,2,test,11,assets\ed_vegetables\cucumber_1.png,0,,1173.16,0.0,1.0
24103002,ed_vegetables,2,test,12,assets\ed_vegetables\sprouts_2.png,0,,1174.91,0.0,1.0
24103002,ed_vegetables,2,test,13,assets\ed_vegetables\scallion_2.png,0,,1176.64,0.0,1.0
24103002,ed_vegetables,2,test,14,assets\ed_vegetables\bok_choy_2.png,0,,1178.38,0.0,1.0
24103002,ed_vegetables,2,test,15,assets\ed_vegetables\brussels_sprouts_1.png,0,,1180.12,0.0,1.0
24103002,ed_vegetables,2,test,16,assets\ed_vegetables\artichoke_1.png,0,,1181.88,0.0,1.0
24103002,ed_vegetables,2,test,17,assets\ed_vegetables\corn_1.png,0,,1183.63,0.0,1.0
24103002,ed_vegetables,2,test,18,assets\ed_vegetables\bell_pepper_3.png,0,,1185.37,0.0,1.0
24103002,ed_vegetables,2,test,19,assets\ed_vegetables\bell_pepper_3.png,1,0.593,1187.1,1.0,1.0
24103002,ed_vegetables,2,test,20,assets\ed_vegetables\cauliflower_2.png,0,,1188.84,0.0,1.0
24103002,ed_vegetables,3,test,0,assets\ed_vegetables\leek_3.png,0,,1196.45,,
24103002,ed_vegetables,3,test,1,assets\ed_vegetables\gourd_2.png,0,,1198.19,0.0,1.0
24103002,ed_vegetables,3,test,2,assets\ed_vegetables\gourd_2.png,1,0.568,1199.93,1.0,1.0
24103002,ed_vegetables,3,test,3,assets\ed_vegetables\cucumber_2.png,0,,1201.72,0.0,1.0
24103002,ed_vegetables,3,test,4,assets\ed_vegetables\onion_2.png,0,,1203.83,0.0,1.0
24103002,ed_vegetables,3,test,5,assets\ed_vegetables\brussels_sprouts_3.png,0,,1205.58,0.0,1.0
24103002,ed_vegetables,3,test,6,assets\ed_vegetables\brussels_sprouts_3.png,1,0.58,1207.33,1.0,1.0
24103002,ed_vegetables,3,test,7,assets\ed_vegetables\brussels_sprouts_3.png,1,0.534,1209.07,1.0,1.0
24103002,ed_vegetables,3,test,8,assets\ed_vegetables\brussels_sprouts_3.png,1,0.408,1210.81,1.0,1.0
24103002,ed_vegetables,3,test,9,assets\ed_vegetables\cucumber_3.png,0,,1212.59,0.0,1.0
24103002,ed_vegetables,3,test,10,assets\ed_vegetables\okra_2.png,0,,1214.45,0.0,1.0
24103002,ed_vegetables,3,test,11,assets\ed_vegetables\leek_2.png,0,,1216.19,0.0,1.0
24103002,ed_vegetables,3,test,12,assets\ed_vegetables\scallion_3.png,0,,1217.94,0.0,1.0
24103002,ed_vegetables,3,test,13,assets\ed_vegetables\arugula_1.png,0,,1219.68,0.0,1.0
24103002,ed_vegetables,3,test,14,assets\ed_vegetables\jalapeno_1.png,0,,1221.42,0.0,1.0
24103002,ed_vegetables,3,test,15,assets\ed_vegetables\arugula_2.png,0,,1223.16,0.0,1.0
24103002,ed_vegetables,3,test,16,assets\ed_vegetables\bell_pepper_2.png,0,,1224.9,0.0,1.0
24103002,ed_vegetables,3,test,17,assets\ed_vegetables\chive_3.png,0,,1226.65,0.0,1.0
24103002,ed_vegetables,3,test,18,assets\ed_vegetables\scallion_1.png,0,,1228.38,0.0,1.0
24103002,ed_vegetables,3,test,19,assets\ed_vegetables\okra_1.png,0,,1230.23,0.0,1.0
24103002,ed_vegetables,3,test,20,assets\ed_vegetables\radish_3.png,0,,1231.96,0.0,1.0
24103002,ed_vegetables,4,test,0,assets\ed_vegetables\okra_3.png,0,,1240.43,,
24103002,ed_vegetables,4,test,1,assets\ed_vegetables\bok_choy_1.png,0,,1242.16,0.0,1.0
24103002,ed_vegetables,4,test,2,assets\ed_vegetables\beet_1.png,0,,1243.91,0.0,1.0
24103002,ed_vegetables,4,test,3,assets\ed_vegetables\artichoke_3.png,0,,1245.63,0.0,1.0
24103002,ed_vegetables,4,test,4,assets\ed_vegetables\gourd_1.png,0,,1247.65,0.0,1.0
24103002,ed_vegetables,4,test,5,assets\ed_vegetables\rhubarb_3.png,0,,1249.46,0.0,1.0
24103002,ed_vegetables,4,test,6,assets\ed_vegetables\brussels_sprouts_2.png,0,,1251.2,0.0,1.0
24103002,ed_vegetables,4,test,7,assets\ed_vegetables\brussels_sprouts_2.png,1,0.528,1252.95,1.0,1.0
24103002,ed_vegetables,4,test,8,assets\ed_vegetables\cauliflower_1.png,0,,1254.68,0.0,1.0
24103002,ed_vegetables,4,test,9,assets\ed_vegetables\gourd_3.png,0,,1256.44,0.0,1.0
24103002,ed_vegetables,4,test,10,assets\ed_vegetables\chive_2.png,0,,1258.17,0.0,1.0
24103002,ed_vegetables,4,test,11,assets\ed_vegetables\jalapeno_2.png,0,,1259.93,0.0,1.0
24103002,ed_vegetables,4,test,12,assets\ed_vegetables\rhubarb_1.png,0,,1261.66,0.0,1.0
24103002,ed_vegetables,4,test,13,assets\ed_vegetables\rhubarb_1.png,1,0.605,1263.4,1.0,1.0
24103002,ed_vegetables,4,test,14,assets\ed_vegetables\rhubarb_1.png,1,0.458,1265.13,1.0,1.0
24103002,ed_vegetables,4,test,15,assets\ed_vegetables\green_beans_3.png,0,,1266.87,0.0,1.0
24103002,ed_vegetables,4,test,16,assets\ed_vegetables\corn_1.png,0,,1268.61,0.0,1.0
24103002,ed_vegetables,4,test,17,assets\ed_vegetables\bok_choy_2.png,0,,1270.34,0.0,1.0
24103002,ed_vegetables,4,test,18,assets\ed_vegetables\cucumber_1.png,0,,1272.11,0.0,1.0
24103002,ed_vegetables,4,test,19,assets\ed_vegetables\sprouts_3.png,0,,1273.86,0.0,1.0
24103002,ed_vegetables,4,test,20,assets\ed_vegetables\rhubarb_2.png,0,,1275.61,0.0,1.0
24103002,ed_vegetables,5,test,0,assets\ed_vegetables\jalapeno_3.png,0,,1284.74,,
24103002,ed_vegetables,5,test,1,assets\ed_vegetables\corn_3.png,0,,1286.48,0.0,1.0
24103002,ed_vegetables,5,test,2,assets\ed_vegetables\corn_3.png,1,0.677,1288.22,1.0,1.0
24103002,ed_vegetables,5,test,3,assets\ed_vegetables\radish_1.png,0,,1289.97,0.0,1.0
24103002,ed_vegetables,5,test,4,assets\ed_vegetables\radish_2.png,0,,1291.7,0.0,1.0
24103002,ed_vegetables,5,test,5,assets\ed_vegetables\bell_pepper_3.png,0,,1293.43,0.0,1.0
24103002,ed_vegetables,5,test,6,assets\ed_vegetables\onion_1.png,0,,1295.16,0.0,1.0
24103002,ed_vegetables,5,test,7,assets\ed_vegetables\onion_3.png,0,,1296.92,0.0,1.0
24103002,ed_vegetables,5,test,8,assets\ed_vegetables\green_beans_1.png,0,,1298.66,0.0,1.0
24103002,ed_vegetables,5,test,9,assets\ed_vegetables\bok_choy_3.png,0,,1300.41,0.0,1.0
24103002,ed_vegetables,5,test,10,assets\ed_vegetables\gourd_2.png,0,,1302.15,0.0,1.0
24103002,ed_vegetables,5,test,11,assets\ed_vegetables\scallion_2.png,0,,1303.89,0.0,1.0
24103002,ed_vegetables,5,test,12,assets\ed_vegetables\sprouts_2.png,0,,1305.64,0.0,1.0
24103002,ed_vegetables,5,test,13,assets\ed_vegetables\arugula_1.png,0,,1307.38,0.0,1.0
24103002,ed_vegetables,5,test,14,assets\ed_vegetables\beet_2.png,0,,1309.12,0.0,1.0
24103002,ed_vegetables,5,test,15,assets\ed_vegetables\chive_3.png,0,,1310.87,0.0,1.0
24103002,ed_vegetables,5,test,16,assets\ed_vegetables\cauliflower_3.png,0,,1312.62,0.0,1.0
24103002,ed_vegetables,5,test,17,assets\ed_vegetables\cauliflower_3.png,1,0.637,1314.36,1.0,1.0
24103002,ed_vegetables,5,test,18,assets\ed_vegetables\cauliflower_2.png,0,,1316.09,0.0,1.0
24103002,ed_vegetables,5,test,19,assets\ed_vegetables\corn_2.png,0,,1317.84,0.0,1.0
24103002,ed_vegetables,5,test,20,assets\ed_vegetables\brussels_sprouts_1.png,0,,1319.58,0.0,1.0
24103002,ed_vegetables,6,test,0,assets\ed_vegetables\beet_1.png,0,,1327.54,,
24103002,ed_vegetables,6,test,1,assets\ed_vegetables\beet_1.png,1,0.564,1329.28,1.0,1.0
24103002,ed_vegetables,6,test,2,assets\ed_vegetables\okra_2.png,0,,1331.1,0.0,1.0
24103002,ed_vegetables,6,test,3,assets\ed_vegetables\arugula_2.png,0,,1332.84,0.0,1.0
24103002,ed_vegetables,6,test,4,assets\ed_vegetables\gourd_3.png,0,,1334.59,0.0,1.0
24103002,ed_vegetables,6,test,5,assets\ed_vegetables\chive_2.png,0,,1336.32,0.0,1.0
24103002,ed_vegetables,6,test,6,assets\ed_vegetables\chive_1.png,0,,1338.06,0.0,1.0
24103002,ed_vegetables,6,test,7,assets\ed_vegetables\brussels_sprouts_3.png,0,,1339.81,0.0,1.0
24103002,ed_vegetables,6,test,8,assets\ed_vegetables\brussels_sprouts_3.png,1,0.614,1341.55,1.0,1.0
24103002,ed_vegetables,6,test,9,assets\ed_vegetables\cauliflower_1.png,0,,1343.28,0.0,1.0
24103002,ed_vegetables,6,test,10,assets\ed_vegetables\brussels_sprouts_2.png,0,,1345.02,0.0,1.0
24103002,ed_vegetables,6,test,11,assets\ed_vegetables\scallion_3.png,0,,1346.77,0.0,1.0
24103002,ed_vegetables,6,test,12,assets\ed_vegetables\cucumber_1.png,0,,1348.56,0.0,1.0
24103002,ed_vegetables,6,test,13,assets\ed_vegetables\leek_1.png,0,,1350.64,0.0,1.0
24103002,ed_vegetables,6,test,14,assets\ed_vegetables\radish_3.png,0,,1352.38,0.0,1.0
24103002,ed_vegetables,6,test,15,assets\ed_vegetables\rhubarb_3.png,0,,1354.21,0.0,1.0
24103002,ed_vegetables,6,test,16,assets\ed_vegetables\leek_3.png,0,,1355.94,0.0,1.0
24103002,ed_vegetables,6,test,17,assets\ed_vegetables\cucumber_2.png,0,,1357.71,0.0,1.0
24103002,ed_vegetables,6,test,18,assets\ed_vegetables\bell_pepper_3.png,0,,1359.44,0.0,1.0
24103002,ed_vegetables,6,test,19,assets\ed_vegetables\onion_1.png,0,,1361.17,0.0,1.0
24103002,ed_vegetables,6,test,20,assets\ed_vegetables\bell_pepper_1.png,0,,1362.92,0.0,1.0
24103002,ed_vegetables,7,test,0,assets\ed_vegetables\rhubarb_2.png,0,,1371.25,,
24103002,ed_vegetables,7,test,1,assets\ed_vegetables\jalapeno_2.png,0,,1372.98,0.0,1.0
24103002,ed_vegetables,7,test,2,assets\ed_vegetables\jalapeno_3.png,0,,1374.71,0.0,1.0
24103002,ed_vegetables,7,test,3,assets\ed_vegetables\rhubarb_1.png,0,,1376.45,0.0,1.0
24103002,ed_vegetables,7,test,4,assets\ed_vegetables\okra_3.png,0,,1378.25,0.0,1.0
24103002,ed_vegetables,7,test,5,assets\ed_vegetables\bell_pepper_2.png,0,,1379.98,0.0,1.0
24103002,ed_vegetables,7,test,6,assets\ed_vegetables\bell_pepper_2.png,1,0.624,1381.72,1.0,1.0
24103002,ed_vegetables,7,test,7,assets\ed_vegetables\bell_pepper_2.png,1,0.484,1383.46,1.0,1.0
24103002,ed_vegetables,7,test,8,assets\ed_vegetables\arugula_3.png,0,,1385.2,0.0,1.0
24103002,ed_vegetables,7,test,9,assets\ed_vegetables\green_beans_3.png,0,,1386.95,0.0,1.0
24103002,ed_vegetables,7,test,10,assets\ed_vegetables\onion_2.png,0,,1389.05,0.0,1.0
24103002,ed_vegetables,7,test,11,assets\ed_vegetables\radish_1.png,0,,1390.79,0.0,1.0
24103002,ed_vegetables,7,test,12,assets\ed_vegetables\scallion_2.png,0,,1392.53,0.0,1.0
24103002,ed_vegetables,7,test,13,assets\ed_vegetables\corn_3.png,0,,1394.27,0.0,1.0
24103002,ed_vegetables,7,test,14,assets\ed_vegetables\onion_3.png,0,,1396.03,0.0,1.0
24103002,ed_vegetables,7,test,15,assets\ed_vegetables\cauliflower_2.png,0,,1397.76,0.0,1.0
24103002,ed_vegetables,7,test,16,assets\ed_vegetables\green_beans_2.png,0,,1399.5,0.0,1.0
24103002,ed_vegetables,7,test,17,assets\ed_vegetables\okra_2.png,0,,1401.31,0.0,1.0
24103002,ed_vegetables,7,test,18,assets\ed_vegetables\bok_choy_3.png,0,,1403.05,0.0,1.0
24103002,ed_vegetables,7,test,19,assets\ed_vegetables\radish_2.png,0,,1404.78,0.0,1.0
24103002,ed_vegetables,7,test,20,assets\ed_vegetables\chive_1.png,0,,1406.52,0.0,1.0
24103002,ed_vegetables,8,test,0,assets\ed_vegetables\artichoke_3.png,0,,1414.07,,
24103002,ed_vegetables,8,test,1,assets\ed_vegetables\artichoke_3.png,1,0.536,1415.79,1.0,1.0
24103002,ed_vegetables,8,test,2,assets\ed_vegetables\cauliflower_3.png,0,,1417.53,0.0,1.0
24103002,ed_vegetables,8,test,3,assets\ed_vegetables\sprouts_2.png,0,,1419.27,0.0,1.0
24103002,ed_vegetables,8,test,4,assets\ed_vegetables\sprouts_2.png,1,0.559,1421.01,1.0,1.0
24103002,ed_vegetables,8,test,5,assets\ed_vegetables\scallion_1.png,0,,1422.74,0.0,1.0
24103002,ed_vegetables,8,test,6,assets\ed_vegetables\beet_2.png,0,,1424.49,0.0,1.0
24103002,ed_vegetables,8,test,7,assets\ed_vegetables\beet_2.png,1,0.605,1426.23,1.0,1.0
24103002,ed_vegetables,8,test,8,assets\ed_vegetables\arugula_2.png,0,,1427.97,0.0,1.0
24103002,ed_vegetables,8,test,9,assets\ed_vegetables\scallion_3.png,0,,1429.71,0.0,1.0
24103002,ed_vegetables,8,test,10,assets\ed_vegetables\chive_2.png,0,,1431.44,0.0,1.0
24103002,ed_vegetables,8,test,11,assets\ed_vegetables\cucumber_2.png,0,,1433.21,0.0,1.0
24103002,ed_vegetables,8,test,12,assets\ed_vegetables\cucumber_2.png,1,0.557,1434.97,1.0,1.0
24103002,ed_vegetables,8,test,13,assets\ed_vegetables\gourd_3.png,0,,1436.73,0.0,1.0
24103002,ed_vegetables,8,test,14,assets\ed_vegetables\brussels_sprouts_3.png,0,,1438.48,0.0,1.0
24103002,ed_vegetables,8,test,15,assets\ed_vegetables\arugula_1.png,0,,1440.22,0.0,1.0
24103002,ed_vegetables,8,test,16,assets\ed_vegetables\rhubarb_2.png,0,,1441.96,0.0,1.0
24103002,ed_vegetables,8,test,17,assets\ed_vegetables\leek_2.png,0,,1443.69,0.0,1.0
24103002,ed_vegetables,8,test,18,assets\ed_vegetables\jalapeno_1.png,0,,1445.43,0.0,1.0
24103002,ed_vegetables,8,test,19,assets\ed_vegetables\jalapeno_3.png,0,,1447.17,0.0,1.0
24103002,ed_vegetables,8,test,20,assets\ed_vegetables\bok_choy_2.png,0,,1448.9,0.0,1.0
24103002,ed_vegetables,9,test,0,assets\ed_vegetables\corn_2.png,0,,1456.36,,
24103002,ed_vegetables,9,test,1,assets\ed_vegetables\rhubarb_3.png,0,,1458.21,0.0,1.0
24103002,ed_vegetables,9,test,2,assets\ed_vegetables\artichoke_1.png,0,,1459.98,0.0,1.0
24103002,ed_vegetables,9,test,3,assets\ed_vegetables\artichoke_1.png,1,0.469,1461.73,1.0,1.0
24103002,ed_vegetables,9,test,4,assets\ed_vegetables\sprouts_3.png,0,,1463.49,0.0,1.0
24103002,ed_vegetables,9,test,5,assets\ed_vegetables\sprouts_3.png,1,0.637,1465.23,1.0,1.0
24103002,ed_vegetables,9,test,6,assets\ed_vegetables\cauliflower_1.png,0,,1466.97,0.0,1.0
24103002,ed_vegetables,9,test,7,assets\ed_vegetables\cauliflower_1.png,1,0.639,1468.71,1.0,1.0
24103002,ed_vegetables,9,test,8,assets\ed_vegetables\brussels_sprouts_2.png,0,,1470.45,0.0,1.0
24103002,ed_vegetables,9,test,9,assets\ed_vegetables\okra_3.png,0,,1472.29,0.0,1.0
24103002,ed_vegetables,9,test,10,assets\ed_vegetables\arugula_3.png,0,,1474.04,0.0,1.0
24103002,ed_vegetables,9,test,11,assets\ed_vegetables\arugula_3.png,1,0.594,1475.78,1.0,1.0
24103002,ed_vegetables,9,test,12,assets\ed_vegetables\bell_pepper_3.png,0,,1477.52,0.0,1.0
24103002,ed_vegetables,9,test,13,assets\ed_vegetables\chive_3.png,0,,1479.29,0.0,1.0
24103002,ed_vegetables,9,test,14,assets\ed_vegetables\cauliflower_2.png,0,,1481.03,0.0,1.0
24103002,ed_vegetables,9,test,15,assets\ed_vegetables\bok_choy_1.png,0,,1482.78,0.0,1.0
24103002,ed_vegetables,9,test,16,assets\ed_vegetables\sprouts_1.png,0,,1484.53,0.0,1.0
24103002,ed_vegetables,9,test,17,assets\ed_vegetables\beet_3.png,0,,1486.26,0.0,1.0
24103002,ed_vegetables,9,test,18,assets\ed_vegetables\bok_choy_3.png,0,,1488.01,0.0,1.0
24103002,ed_vegetables,9,test,19,assets\ed_vegetables\cucumber_1.png,0,,1489.79,0.0,1.0
24103002,ed_vegetables,9,test,20,assets\ed_vegetables\gourd_2.png,0,,1491.54,0.0,1.0
24103002,ed_vegetables,10,test,0,assets\ed_vegetables\bell_pepper_2.png,0,,1498.93,,
24103002,ed_vegetables,10,test,1,assets\ed_vegetables\onion_1.png,0,,1500.67,0.0,1.0
24103002,ed_vegetables,10,test,2,assets\ed_vegetables\radish_3.png,0,,1502.41,0.0,1.0
24103002,ed_vegetables,10,test,3,assets\ed_vegetables\green_beans_1.png,0,,1504.15,0.0,1.0
24103002,ed_vegetables,10,test,4,assets\ed_vegetables\radish_2.png,0,,1505.89,0.0,1.0
24103002,ed_vegetables,10,test,5,assets\ed_vegetables\scallion_1.png,0,,1507.63,0.0,1.0
24103002,ed_vegetables,10,test,6,assets\ed_vegetables\scallion_1.png,1,0.57,1509.36,1.0,1.0
24103002,ed_vegetables,10,test,7,assets\ed_vegetables\beet_2.png,0,,1511.11,0.0,1.0
24103002,ed_vegetables,10,test,8,assets\ed_vegetables\radish_1.png,0,,1512.85,0.0,1.0
24103002,ed_vegetables,10,test,9,assets\ed_vegetables\jalapeno_2.png,0,,1514.59,0.0,1.0
24103002,ed_vegetables,10,test,10,assets\ed_vegetables\okra_2.png,0,,1516.46,0.0,1.0
24103002,ed_vegetables,10,test,11,assets\ed_vegetables\chive_2.png,0,,1518.2,0.0,1.0
24103002,ed_vegetables,10,test,12,assets\ed_vegetables\beet_1.png,0,,1519.95,0.0,1.0
24103002,ed_vegetables,10,test,13,assets\ed_vegetables\cauliflower_3.png,0,,1521.7,0.0,1.0
24103002,ed_vegetables,10,test,14,assets\ed_vegetables\arugula_1.png,0,,1523.45,0.0,1.0
24103002,ed_vegetables,10,test,15,assets\ed_vegetables\arugula_2.png,0,,1525.19,0.0,1.0
24103002,ed_vegetables,10,test,16,assets\ed_vegetables\chive_1.png,0,,1526.93,0.0,1.0
24103002,ed_vegetables,10,test,17,assets\ed_vegetables\leek_3.png,0,,1528.68,0.0,1.0
24103002,ed_vegetables,10,test,18,assets\ed_vegetables\jalapeno_3.png,0,,1530.41,0.0,1.0
24103002,ed_vegetables,10,test,19,assets\ed_vegetables\rhubarb_3.png,0,,1532.25,0.0,1.0
24103002,ed_vegetables,10,test,20,assets\ed_vegetables\artichoke_1.png,0,,1534.0,0.0,1.0
24103002,ed_birds,1,test,0,assets\ed_birds\eagle_1.png,0,,1556.49,,
24103002,ed_birds,1,test,1,assets\ed_birds\eagle_1.png,1,0.498,1558.22,1.0,1.0
24103002,ed_birds,1,test,2,assets\ed_birds\vulture_1.png,0,,1559.96,0.0,1.0
24103002,ed_birds,1,test,3,assets\ed_birds\pheasant_1.png,0,,1561.71,0.0,1.0
24103002,ed_birds,1,test,4,assets\ed_birds\crow_1.png,0,,1563.44,0.0,1.0
24103002,ed_birds,1,test,5,assets\ed_birds\turkey_1.png,0,,1565.32,0.0,1.0
24103002,ed_birds,1,test,6,assets\ed_birds\turkey_1.png,1,0.497,1567.15,1.0,1.0
24103002,ed_birds,1,test,7,assets\ed_birds\toucan_1.png,0,,1568.91,0.0,1.0
24103002,ed_birds,1,test,8,assets\ed_birds\peacock_3.png,0,,1570.66,0.0,1.0
24103002,ed_birds,1,test,9,assets\ed_birds\seagull_2.png,0,,1572.41,0.0,1.0
24103002,ed_birds,1,test,10,assets\ed_birds\pigeon_2.png,0,,1574.15,0.0,1.0
24103002,ed_birds,1,test,11,assets\ed_birds\toucan_2.png,0,,1575.89,0.0,1.0
24103002,ed_birds,1,test,12,assets\ed_birds\cardinal_2.png,0,,1577.64,0.0,1.0
24103002,ed_birds,1,test,13,assets\ed_birds\penguin_3.png,0,,1579.38,0.0,1.0
24103002,ed_birds,1,test,14,assets\ed_birds\hummingbird_3.png,0,,1581.12,0.0,1.0
24103002,ed_birds,1,test,15,assets\ed_birds\vulture_2.png,0,,1582.87,0.0,1.0
24103002,ed_birds,1,test,16,assets\ed_birds\rooster_3.png,0,,1584.6,0.0,1.0
24103002,ed_birds,1,test,17,assets\ed_birds\hummingbird_1.png,0,,1586.35,0.0,1.0
24103002,ed_birds,1,test,18,assets\ed_birds\flamingo_2.png,0,,1588.08,0.0,1.0
24103002,ed_birds,1,test,19,assets\ed_birds\duckling_1.png,0,,1589.82,0.0,1.0
24103002,ed_birds,1,test,20,assets\ed_birds\crow_2.png,0,,1591.56,0.0,1.0
24103002,ed_birds,2,test,0,assets\ed_birds\toucan_3.png,0,,1599.06,,
24103002,ed_birds,2,test,1,assets\ed_birds\swan_3.png,0,,1600.8,0.0,1.0
24103002,ed_birds,2,test,2,assets\ed_birds\penguin_2.png,0,,1602.54,0.0,1.0
24103002,ed_birds,2,test,3,assets\ed_birds\puffin_3.png,0,,1604.29,0.0,1.0
24103002,ed_birds,2,test,4,assets\ed_birds\pheasant_3.png,0,,1606.04,0.0,1.0
24103002,ed_birds,2,test,5,assets\ed_birds\goose_2.png,0,,1607.8,0.0,1.0
24103002,ed_birds,2,test,6,assets\ed_birds\vulture_3.png,0,,1609.54,0.0,1.0
24103002,ed_birds,2,test,7,assets\ed_birds\puffin_1.png,0,,1611.28,0.0,1.0
24103002,ed_birds,2,test,8,assets\ed_birds\seagull_3.png,0,,1613.02,0.0,1.0
24103002,ed_birds,2,test,9,assets\ed_birds\rooster_1.png,0,,1614.76,0.0,1.0
24103002,ed_birds,2,test,10,assets\ed_birds\rooster_1.png,1,0.595,1616.5,1.0,1.0
24103002,ed_birds,2,test,11,assets\ed_birds\duckling_2.png,0,,1618.25,0.0,1.0
24103002,ed_birds,2,test,12,assets\ed_birds\cardinal_1.png,0,,1619.99,0.0,1.0
24103002,ed_birds,2,test,13,assets\ed_birds\pheasant_2.png,0,,1621.73,0.0,1.0
24103002,ed_birds,2,test,14,assets\ed_birds\ostrich_1.png,0,,1623.47,0.0,1.0
24103002,ed_birds,2,test,15,assets\ed_birds\flamingo_1.png,0,,1625.22,0.0,1.0
24103002,ed_birds,2,test,16,assets\ed_birds\hummingbird_2.png,0,,1626.96,0.0,1.0
24103002,ed_birds,2,test,17,assets\ed_birds\pigeon_3.png,0,,1628.72,0.0,1.0
24103002,ed_birds,2,test,18,assets\ed_birds\puffin_2.png,0,,1630.47,0.0,1.0
24103002,ed_birds,2,test,19,assets\ed_birds\eagle_2.png,0,,1632.21,0.0,1.0
24103002,ed_birds,2,test,20,assets\ed_birds\ostrich_3.png,0,,1633.95,0.0,1.0
24103002,ed_birds,3,test,0,assets\ed_birds\rooster_2.png,0,,1642.14,,
24103002,ed_birds,3,test,1,assets\ed_birds\turkey_1.png,0,,1644.01,0.0,1.0
24103002,ed_birds,3,test,2,assets\ed_birds\goose_1.png,0,,1645.75,0.0,1.0
24103002,ed_birds,3,test,3,assets\ed_birds\duckling_3.png,0,,1647.5,0.0,1.0
24103002,ed_birds,3,test,4,assets\ed_birds\pelican_3.png,0,,1649.25,0.0,1.0
24103002,ed_birds,3,test,5,assets\ed_birds\pigeon_2.png,0,,1650.99,0.0,1.0
24103002,ed_birds,3,test,6,assets\ed_birds\penguin_3.png,0,,1652.73,0.0,1.0
24103002,ed_birds,3,test,7,assets\ed_birds\vulture_2.png,0,,1654.46,0.0,1.0
24103002,ed_birds,3,test,8,assets\ed_birds\pheasant_1.png,0,,1656.2,0.0,1.0
24103002,ed_birds,3,test,9,assets\ed_birds\swan_1.png,0,,1657.94,0.0,1.0
24103002,ed_birds,3,test,10,assets\ed_birds\vulture_1.png,0,,1659.67,0.0,1.0
24103002,ed_birds,3,test,11,assets\ed_birds\toucan_2.png,0,,1661.41,0.0,1.0
24103002,ed_birds,3,test,12,assets\ed_birds\cardinal_3.png,0,,1663.15,0.0,1.0
24103002,ed_birds,3,test,13,assets\ed_birds\toucan_3.png,0,,1664.88,0.0,1.0
24103002,ed_birds,3,test,14,assets\ed_birds\pelican_1.png,0,,1666.62,0.0,1.0
24103002,ed_birds,3,test,15,assets\ed_birds\goose_3.png,0,,1668.36,0.0,1.0
24103002,ed_birds,3,test,16,assets\ed_birds\toucan_1.png,0,,1670.1,0.0,1.0
24103002,ed_birds,3,test,17,assets\ed_birds\pheasant_3.png,0,,1671.83,0.0,1.0
24103002,ed_birds,3,test,18,assets\ed_birds\turkey_3.png,0,,1673.58,0.0,1.0
24103002,ed_birds,3,test,19,assets\ed_birds\flamingo_2.png,0,,1675.31,0.0,1.0
24103002,ed_birds,3,test,20,assets\ed_birds\flamingo_2.png,1,0.644,1677.04,1.0,1.0
24103002,ed_birds,4,test,0,assets\ed_birds\cardinal_2.png,0,,1684.85,,
24103002,ed_birds,4,test,1,assets\ed_birds\eagle_3.png,0,,1686.59,0.0,1.0
24103002,ed_birds,4,test,2,assets\ed_birds\peacock_1.png,0,,1688.34,0.0,1.0
24103002,ed_birds,4,test,3,assets\ed_birds\crow_1.png,0,,1690.07,0.0,1.0
24103002,ed_birds,4,test,4,assets\ed_birds\goose_2.png,0,,1691.8,0.0,1.0
24103002,ed_birds,4,test,5,assets\ed_birds\turkey_2.png,0,,1693.56,0.0,1.0
24103002,ed_birds,4,test,6,assets\ed_birds\seagull_1.png,0,,1695.3,0.0,1.0
24103002,ed_birds,4,test,7,assets\ed_birds\vulture_3.png,0,,1697.04,0.0,1.0
24103002,ed_birds,4,test,8,assets\ed_birds\peacock_3.png,0,,1698.78,0.0,1.0
24103002,ed_birds,4,test,9,assets\ed_birds\peacock_2.png,0,,1700.54,0.0,1.0
24103002,ed_birds,4,test,10,assets\ed_birds\duckling_1.png,0,,1702.27,0.0,1.0
24103002,ed_birds,4,test,11,assets\ed_birds\puffin_1.png,0,,1704.01,0.0,1.0
24103002,ed_birds,4,test,12,assets\ed_birds\puffin_1.png,1,0.843,1705.74,1.0,1.0
24103002,ed_birds,4,test,13,assets\ed_birds\ostrich_3.png,0,,1707.48,0.0,1.0
24103002,ed_birds,4,test,14,assets\ed_birds\cardinal_1.png,0,,1709.21,0.0,1.0
24103002,ed_birds,4,test,15,assets\ed_birds\swan_3.png,0,,1710.94,0.0,1.0
24103002,ed_birds,4,test,16,assets\ed_birds\pelican_2.png,0,,1712.68,0.0,1.0
24103002,ed_birds,4,test,17,assets\ed_birds\pigeon_2.png,0,,1714.42,0.0,1.0
24103002,ed_birds,4,test,18,assets\ed_birds\goose_1.png,0,,1716.16,0.0,1.0
24103002,ed_birds,4,test,19,assets\ed_birds\eagle_2.png,0,,1717.89,0.0,1.0
24103002,ed_birds,4,test,20,assets\ed_birds\ostrich_2.png,0,,1719.63,0.0,1.0
24103002,ed_birds,5,test,0,assets\ed_birds\swan_2.png,0,,1727.25,,
24103002,ed_birds,5,test,1,assets\ed_birds\pelican_3.png,0,,1728.99,0.0,1.0
24103002,ed_birds,5,test,2,assets\ed_birds\rooster_3.png,0,,1730.72,0.0,1.0
24103002,ed_birds,5,test,3,assets\ed_birds\duckling_3.png,0,,1732.45,0.0,1.0
24103002,ed_birds,5,test,4,assets\ed_birds\puffin_2.png,0,,1734.19,0.0,1.0
24103002,ed_birds,5,test,5,assets\ed_birds\hummingbird_2.png,0,,1735.92,0.0,1.0
24103002,ed_birds,5,test,6,assets\ed_birds\turkey_1.png,0,,1737.79,0.0,1.0
24103002,ed_birds,5,test,7,assets\ed_birds\toucan_1.png,0,,1739.53,0.0,1.0
24103002,ed_birds,5,test,8,assets\ed_birds\toucan_3.png,0,,1741.26,0.0,1.0
24103002,ed_birds,5,test,9,assets\ed_birds\eagle_1.png,0,,1742.99,0.0,1.0
24103002,ed_birds,5,test,10,assets\ed_birds\hummingbird_1.png,0,,1744.73,0.0,1.0
24103002,ed_birds,5,test,11,assets\ed_birds\penguin_1.png,0,,1746.46,0.0,1.0
24103002,ed_birds,5,test,12,assets\ed_birds\pheasant_1.png,0,,1748.2,0.0,1.0
24103002,ed_birds,5,test,13,assets\ed_birds\seagull_3.png,0,,1749.93,0.0,1.0
24103002,ed_birds,5,test,14,assets\ed_birds\vulture_1.png,0,,1751.67,0.0,1.0
24103002,ed_birds,5,test,15,assets\ed_birds\pigeon_1.png,0,,1753.41,0.0,1.0
24103002,ed_birds,5,test,16,assets\ed_birds\pheasant_2.png,0,,1755.14,0.0,1.0
24103002,ed_birds,5,test,17,assets\ed_birds\goose_3.png,0,,1756.88,0.0,1.0
24103002,ed_birds,5,test,18,assets\ed_birds\rooster_2.png,0,,1758.61,0.0,1.0
24103002,ed_birds,5,test,19,assets\ed_birds\turkey_3.png,0,,1760.35,0.0,1.0
24103002,ed_birds,5,test,20,assets\ed_birds\swan_1.png,0,,1762.09,0.0,1.0
24103002,ed_birds,6,test,0,assets\ed_birds\flamingo_1.png,0,,1769.64,,
24103002,ed_birds,6,test,1,assets\ed_birds\penguin_2.png,0,,1771.37,0.0,1.0
24103002,ed_birds,6,test,2,assets\ed_birds\ostrich_1.png,0,,1773.11,0.0,1.0
24103002,ed_birds,6,test,3,assets\ed_birds\puffin_3.png,0,,1774.85,0.0,1.0
24103002,ed_birds,6,test,4,assets\ed_birds\cardinal_1.png,0,,1776.58,0.0,1.0
24103002,ed_birds,6,test,5,assets\ed_birds\goose_2.png,0,,1778.31,0.0,1.0
24103002,ed_birds,6,test,6,assets\ed_birds\toucan_2.png,0,,1780.05,0.0,1.0
24103002,ed_birds,6,test,7,assets\ed_birds\pheasant_3.png,0,,1781.79,0.0,1.0
24103002,ed_birds,6,test,8,assets\ed_birds\crow_2.png,0,,1783.53,0.0,1.0
24103002,ed_birds,6,test,9,assets\ed_birds\swan_3.png,0,,1785.26,0.0,1.0
24103002,ed_birds,6,test,10,assets\ed_birds\duckling_1.png,0,,1787.0,0.0,1.0
24103002,ed_birds,6,test,11,assets\ed_birds\pigeon_3.png,0,,1788.73,0.0,1.0
24103002,ed_birds,6,test,12,assets\ed_birds\swan_2.png,0,,1790.47,0.0,1.0
24103002,ed_birds,6,test,13,assets\ed_birds\pelican_3.png,0,,1792.2,0.0,1.0
24103002,ed_birds,6,test,14,assets\ed_birds\seagull_2.png,0,,1793.94,0.0,1.0
24103002,ed_birds,6,test,15,assets\ed_birds\rooster_1.png,0,,1795.68,0.0,1.0
24103002,ed_birds,6,test,16,assets\ed_birds\pelican_2.png,0,,1797.41,0.0,1.0
24103002,ed_birds,6,test,17,assets\ed_birds\penguin_3.png,0,,1799.14,0.0,1.0
24103002,ed_birds,6,test,18,assets\ed_birds\duckling_2.png,0,,1800.88,0.0,1.0
24103002,ed_birds,6,test,19,assets\ed_birds\puffin_1.png,0,,1802.61,0.0,1.0
24103002,ed_birds,6,test,20,assets\ed_birds\peacock_3.png,0,,1804.35,0.0,1.0
24103002,ed_birds,7,test,0,assets\ed_birds\crow_3.png,0,,1811.64,,
24103002,ed_birds,7,test,1,assets\ed_birds\toucan_3.png,0,,1813.38,0.0,1.0
24103002,ed_birds,7,test,2,assets\ed_birds\toucan_1.png,0,,1815.11,0.0,1.0
24103002,ed_birds,7,test,3,assets\ed_birds\cardinal_2.png,0,,1816.86,0.0,1.0
24103002,ed_birds,7,test,4,assets\ed_birds\cardinal_2.png,1,0.504,1818.59,1.0,1.0
24103002,ed_birds,7,test,5,assets\ed_birds\pigeon_1.png,0,,1820.33,0.0,1.0
24103002,ed_birds,7,test,6,assets\ed_birds\flamingo_2.png,0,,1822.06,0.0,1.0
24103002,ed_birds,7,test,7,assets\ed_birds\cardinal_3.png,0,,1823.8,0.0,1.0
24103002,ed_birds,7,test,8,assets\ed_birds\eagle_2.png,0,,1825.53,0.0,1.0
24103002,ed_birds,7,test,9,assets\ed_birds\pheasant_2.png,0,,1827.27,0.0,1.0
24103002,ed_birds,7,test,10,assets\ed_birds\seagull_1.png,0,,1829.01,0.0,1.0
24103002,ed_birds,7,test,11,assets\ed_birds\seagull_1.png,1,0.655,1830.74,1.0,1.0
24103002,ed_birds,7,test,12,assets\ed_birds\eagle_1.png,0,,1832.47,0.0,1.0
24103002,ed_birds,7,test,13,assets\ed_birds\vulture_2.png,0,,1834.21,0.0,1.0
24103002,ed_birds,7,test,14,assets\ed_birds\pheasant_1.png,0,,1835.94,0.0,1.0
24103002,ed_birds,7,test,15,assets\ed_birds\vulture_3.png,0,,1837.68,0.0,1.0
24103002,ed_birds,7,test,16,assets\ed_birds\rooster_2.png,0,,1839.42,0.0,1.0
24103002,ed_birds,7,test,17,assets\ed_birds\rooster_2.png,1,0.605,1841.16,1.0,1.0
24103002,ed_birds,7,test,18,assets\ed_birds\duckling_3.png,0,,1842.89,0.0,1.0
24103002,ed_birds,7,test,19,assets\ed_birds\hummingbird_3.png,0,,1844.62,0.0,1.0
24103002,ed_birds,7,test,20,assets\ed_birds\puffin_2.png,0,,1846.36,0.0,1.0
24103002,ed_birds,8,test,0,assets\ed_birds\vulture_1.png,0,,1854.03,,
24103002,ed_birds,8,test,1,assets\ed_birds\turkey_2.png,0,,1855.77,0.0,1.0
24103002,ed_birds,8,test,2,assets\ed_birds\ostrich_1.png,0,,1857.51,0.0,1.0
24103002,ed_birds,8,test,3,assets\ed_birds\cardinal_1.png,0,,1859.24,0.0,1.0
24103002,ed_birds,8,test,4,assets\ed_birds\swan_1.png,0,,1860.97,0.0,1.0
24103002,ed_birds,8,test,5,assets\ed_birds\pelican_1.png,0,,1862.71,0.0,1.0
24103002,ed_birds,8,test,6,assets\ed_birds\crow_1.png,0,,1864.44,0.0,1.0
24103002,ed_birds,8,test,7,assets\ed_birds\goose_2.png,0,,1866.18,0.0,1.0
24103002,ed_birds,8,test,8,assets\ed_birds\flamingo_3.png,0,,1867.93,0.0,1.0
24103002,ed_birds,8,test,9,assets\ed_birds\peacock_1.png,0,,1869.67,0.0,1.0
24103002,ed_birds,8,test,10,assets\ed_birds\hummingbird_1.png,0,,1871.4,0.0,1.0
24103002,ed_birds,8,test,11,assets\ed_birds\hummingbird_1.png,1,0.638,1873.13,1.0,1.0
24103002,ed_birds,8,test,12,assets\ed_birds\duckling_1.png,0,,1874.87,0.0,1.0
24103002,ed_birds,8,test,13,assets\ed_birds\duckling_1.png,1,0.542,1876.6,1.0,1.0
24103002,ed_birds,8,test,14,assets\ed_birds\peacock_2.png,0,,1878.34,0.0,1.0
24103002,ed_birds,8,test,15,assets\ed_birds\eagle_3.png,0,,1880.07,0.0,1.0
24103002,ed_birds,8,test,16,assets\ed_birds\turkey_1.png,0,,1881.94,0.0,1.0
24103002,ed_birds,8,test,17,assets\ed_birds\pelican_2.png,0,,1883.68,0.0,1.0
24103002,ed_birds,8,test,18,assets\ed_birds\pigeon_3.png,0,,1885.42,0.0,1.0
24103002,ed_birds,8,test,19,assets\ed_birds\penguin_2.png,0,,1887.15,0.0,1.0
24103002,ed_birds,8,test,20,assets\ed_birds\rooster_3.png,0,,1888.88,0.0,1.0
24103002,ed_birds,9,test,0,assets\ed_birds\flamingo_2.png,0,,1896.51,,
24103002,ed_birds,9,test,1,assets\ed_birds\cardinal_2.png,0,,1898.25,0.0,1.0
24103002,ed_birds,9,test,2,assets\ed_birds\crow_2.png,0,,1899.99,0.0,1.0
24103002,ed_birds,9,test,3,assets\ed_birds\swan_2.png,0,,1901.72,0.0,1.0
24103002,ed_birds,9,test,4,assets\ed_birds\rooster_1.png,0,,1903.46,0.0,1.0
24103002,ed_birds,9,test,5,assets\ed_birds\goose_3.png,0,,1905.2,0.0,1.0
24103002,ed_birds,9,test,6,assets\ed_birds\puffin_1.png,0,,1906.93,0.0,1.0
24103002,ed_birds,9,test,7,assets\ed_birds\puffin_3.png,0,,1908.67,0.0,1.0
24103002,ed_birds,9,test,8,assets\ed_birds\penguin_3.png,0,,1910.4,0.0,1.0
24103002,ed_birds,9,test,9,assets\ed_birds\swan_3.png,0,,1912.14,0.0,1.0
24103002,ed_birds,9,test,10,assets\ed_birds\rooster_2.png,0,,1913.88,0.0,1.0
24103002,ed_birds,9,test,11,assets\ed_birds\toucan_2.png,0,,1915.62,0.0,1.0
24103002,ed_birds,9,test,12,assets\ed_birds\seagull_1.png,0,,1917.35,0.0,1.0
24103002,ed_birds,9,test,13,assets\ed_birds\toucan_1.png,0,,1919.09,0.0,1.0
24103002,ed_birds,9,test,14,assets\ed_birds\ostrich_1.png,0,,1920.82,0.0,1.0
24103002,ed_birds,9,test,15,assets\ed_birds\turkey_2.png,0,,1922.56,0.0,1.0
24103002,ed_birds,9,test,16,assets\ed_birds\swan_1.png,0,,1924.3,0.0,1.0
24103002,ed_birds,9,test,17,assets\ed_birds\swan_1.png,1,0.601,1926.03,1.0,1.0
24103002,ed_birds,9,test,18,assets\ed_birds\crow_3.png,0,,1927.77,0.0,1.0
24103002,ed_birds,9,test,19,assets\ed_birds\puffin_2.png,0,,1929.51,0.0,1.0
24103002,ed_birds,9,test,20,assets\ed_birds\pigeon_2.png,0,,1931.25,0.0,1.0
24103002,ed_birds,10,test,0,assets\ed_birds\seagull_3.png,0,,1939.08,,
24103002,ed_birds,10,test,1,assets\ed_birds\turkey_3.png,0,,1940.81,0.0,1.0
24103002,ed_birds,10,test,2,assets\ed_birds\seagull_2.png,0,,1942.55,0.0,1.0
24103002,ed_birds,10,test,3,assets\ed_birds\pheasant_1.png,0,,1944.29,0.0,1.0
24103002,ed_birds,10,test,4,assets\ed_birds\pheasant_1.png,1,0.655,1946.02,1.0,1.0
24103002,ed_birds,10,test,5,assets\ed_birds\vulture_1.png,0,,1947.75,0.0,1.0
24103002,ed_birds,10,test,6,assets\ed_birds\vulture_1.png,1,0.556,1949.49,1.0,1.0
24103002,ed_birds,10,test,7,assets\ed_birds\pelican_3.png,0,,1951.23,0.0,1.0
24103002,ed_birds,10,test,8,assets\ed_birds\pelican_1.png,0,,1952.96,0.0,1.0
24103002,ed_birds,10,test,9,assets\ed_birds\goose_2.png,0,,1954.7,0.0,1.0
24103002,ed_birds,10,test,10,assets\ed_birds\peacock_3.png,0,,1956.43,0.0,1.0
24103002,ed_birds,10,test,11,assets\ed_birds\penguin_1.png,0,,1958.16,0.0,1.0
24103002,ed_birds,10,test,12,assets\ed_birds\hummingbird_3.png,0,,1959.9,0.0,1.0
24103002,ed_birds,10,test,13,assets\ed_birds\crow_1.png,0,,1961.63,0.0,1.0
24103002,ed_birds,10,test,14,assets\ed_birds\eagle_2.png,0,,1963.36,0.0,1.0
24103002,ed_birds,10,test,15,assets\ed_birds\cardinal_3.png,0,,1965.09,0.0,1.0
24103002,ed_birds,10,test,16,assets\ed_birds\duckling_1.png,0,,1966.83,0.0,1.0
24103002,ed_birds,10,test,17,assets\ed_birds\duckling_1.png,1,0.513,1968.56,1.0,1.0
24103002,ed_birds,10,test,18,assets\ed_birds\pigeon_3.png,0,,1970.3,0.0,1.0
24103002,ed_birds,10,test,19,assets\ed_birds\rooster_3.png,0,,1972.03,0.0,1.0
24103002,ed_birds,10,test,20,assets\ed_birds\flamingo_1.png,0,,1973.76,0.0,1.0
24103002,ed_desserts,1,test,0,assets\ed_desserts\tiramisu_2.png,0,,1986.24,,
24103002,ed_desserts,1,test,1,assets\ed_desserts\sorbet_2.png,0,,1988.02,0.0,1.0
24103002,ed_desserts,1,test,2,assets\ed_desserts\popsicle_3.png,0,,1989.77,0.0,1.0
24103002,ed_desserts,1,test,3,assets\ed_desserts\sorbet_3.png,0,,1991.53,0.0,1.0
24103002,ed_desserts,1,test,4,assets\ed_desserts\sundae_3.png,0,,1993.28,0.0,1.0
24103002,ed_desserts,1,test,5,assets\ed_desserts\parfait_3.png,0,,1995.03,0.0,1.0
24103002,ed_desserts,1,test,6,assets\ed_desserts\parfait_2.png,0,,1996.77,0.0,1.0
24103002,ed_desserts,1,test,7,assets\ed_desserts\brownie_3.png,0,,1998.54,0.0,1.0
24103002,ed_desserts,1,test,8,assets\ed_desserts\cupcake_3.png,0,,2000.52,0.0,1.0
24103002,ed_desserts,1,test,9,assets\ed_desserts\cupcake_3.png,1,0.66,2002.43,1.0,1.0
24103002,ed_desserts,1,test,10,assets\ed_desserts\milkshake_2.png,0,,2004.17,0.0,1.0
24103002,ed_desserts,1,test,11,assets\ed_desserts\milkshake_2.png,1,0.602,2005.91,1.0,1.0
24103002,ed_desserts,1,test,12,assets\ed_desserts\whipped_cream_2.png,0,,2007.66,0.0,1.0
24103002,ed_desserts,1,test,13,assets\ed_desserts\banana_split_2.png,0,,2009.4,0.0,1.0
24103002,ed_desserts,1,test,14,assets\ed_desserts\sundae_1.png,0,,2011.14,0.0,1.0
24103002,ed_desserts,1,test,15,assets\ed_desserts\cheesecake_3.png,0,,2012.89,0.0,1.0
24103002,ed_desserts,1,test,16,assets\ed_desserts\pudding_1.png,0,,2014.64,0.0,1.0
24103002,ed_desserts,1,test,17,assets\ed_desserts\whipped_cream_1.png,0,,2016.38,0.0,1.0
24103002,ed_desserts,1,test,18,assets\ed_desserts\chocolate_3.png,0,,2018.13,0.0,1.0
24103002,ed_desserts,1,test,19,assets\ed_desserts\cheesecake_1.png,0,,2019.88,0.0,1.0
24103002,ed_desserts,1,test,20,assets\ed_desserts\cheesecake_1.png,1,0.714,2021.63,1.0,1.0
24103002,ed_desserts,2,test,0,assets\ed_desserts\mousse_1.png,0,,2029.15,,
24103002,ed_desserts,2,test,1,assets\ed_desserts\cupcake_1.png,0,,2030.92,0.0,1.0
24103002,ed_desserts,2,test,2,assets\ed_desserts\banana_split_1.png,0,,2032.68,0.0,1.0
24103002,ed_desserts,2,test,3,assets\ed_desserts\banana_split_1.png,1,0.514,2034.42,1.0,1.0
24103002,ed_desserts,2,test,4,assets\ed_desserts\fruitcake_1.png,0,,2036.16,0.0,1.0
24103002,ed_desserts,2,test,5,assets\ed_desserts\chocolate_2.png,0,,2038.03,0.0,1.0
24103002,ed_desserts,2,test,6,assets\ed_desserts\cupcake_2.png,0,,2040.03,0.0,1.0
24103002,ed_desserts,2,test,7,assets\ed_desserts\chocolate_1.png,0,,2041.78,0.0,1.0
24103002,ed_desserts,2,test,8,assets\ed_desserts\tiramisu_1.png,0,,2043.52,0.0,1.0
24103002,ed_desserts,2,test,9,assets\ed_desserts\fruitcake_2.png,0,,2045.26,0.0,1.0
24103002,ed_desserts,2,test,10,assets\ed_desserts\fruitcake_3.png,0,,2047.02,0.0,1.0
24103002,ed_desserts,2,test,11,assets\ed_desserts\wedding_cake_1.png,0,,2048.76,0.0,1.0
24103002,ed_desserts,2,test,12,assets\ed_desserts\donut_2.png,0,,2050.52,0.0,1.0
24103002,ed_desserts,2,test,13,assets\ed_desserts\donut_3.png,0,,2052.26,0.0,1.0
24103002,ed_desserts,2,test,14,assets\ed_desserts\fudge_1.png,0,,2053.99,0.0,1.0
24103002,ed_desserts,2,test,15,assets\ed_desserts\pudding_3.png,0,,2055.74,0.0,1.0
24103002,ed_desserts,2,test,16,assets\ed_desserts\pudding_3.png,1,0.749,2057.48,1.0,1.0
24103002,ed_desserts,2,test,17,assets\ed_desserts\cake_1.png,0,,2059.22,0.0,1.0
24103002,ed_desserts,2,test,18,assets\ed_desserts\pudding_2.png,0,,2060.97,0.0,1.0
24103002,ed_desserts,2,test,19,assets\ed_desserts\whipped_cream_3.png,0,,2062.72,0.0,1.0
24103002,ed_desserts,2,test,20,assets\ed_desserts\sorbet_1.png,0,,2064.46,0.0,1.0
24103002,ed_desserts,3,test,0,assets\ed_desserts\tiramisu_3.png,0,,2072.36,,
24103002,ed_desserts,3,test,1,assets\ed_desserts\cake_2.png,0,,2074.11,0.0,1.0
24103002,ed_desserts,3,test,2,assets\ed_desserts\parfait_3.png,0,,2075.84,0.0,1.0
24103002,ed_desserts,3,test,3,assets\ed_desserts\brownie_3.png,0,,2077.59,0.0,1.0
24103002,ed_desserts,3,test,4,assets\ed_desserts\brownie_2.png,0,,2079.36,0.0,1.0
24103002,ed_desserts,3,test,5,assets\ed_desserts\popsicle_2.png,0,,2081.11,0.0,1.0
24103002,ed_desserts,3,test,6,assets\ed_desserts\popsicle_2.png,1,0.652,2082.84,1.0,1.0
24103002,ed_desserts,3,test,7,assets\ed_desserts\parfait_2.png,0,,2084.58,0.0,1.0
24103002,ed_desserts,3,test,8,assets\ed_desserts\whipped_cream_2.png,0,,2086.32,0.0,1.0
24103002,ed_desserts,3,test,9,assets\ed_desserts\sundae_2.png,0,,2088.06,0.0,1.0
24103002,ed_desserts,3,test,10,assets\ed_desserts\sundae_2.png,1,0.53,2089.8,1.0,1.0
24103002,ed_desserts,3,test,11,assets\ed_desserts\flan_3.png,0,,2091.54,0.0,1.0
24103002,ed_desserts,3,test,12,assets\ed_desserts\milkshake_2.png,0,,2093.28,0.0,1.0
24103002,ed_desserts,3,test,13,assets\ed_desserts\milkshake_2.png,1,0.494,2095.01,1.0,1.0
24103002,ed_desserts,3,test,14,assets\ed_desserts\cheesecake_2.png,0,,2096.76,0.0,1.0
24103002,ed_desserts,3,test,15,assets\ed_desserts\sorbet_3.png,0,,2098.5,0.0,1.0
24103002,ed_desserts,3,test,16,assets\ed_desserts\flan_2.png,0,,2100.24,0.0,1.0
24103002,ed_desserts,3,test,17,assets\ed_desserts\flan_1.png,0,,2101.99,0.0,1.0
24103002,ed_desserts,3,test,18,assets\ed_desserts\banana_split_3.png,0,,2103.75,0.0,1.0
24103002,ed_desserts,3,test,19,assets\ed_desserts\donut_1.png,0,,2105.67,0.0,1.0
24103002,ed_desserts,3,test,20,assets\ed_desserts\cupcake_3.png,0,,2107.65,0.0,1.0
24103002,ed_desserts,4,test,0,assets\ed_desserts\cheesecake_3.png,0,,2115.0,,
24103002,ed_desserts,4,test,1,assets\ed_desserts\cheesecake_3.png,1,0.714,2116.74,1.0,1.0
24103002,ed_desserts,4,test,2,assets\ed_desserts\cheesecake_3.png,1,0.486,2118.48,1.0,1.0
24103002,ed_desserts,4,test,3,assets\ed_desserts\tiramisu_2.png,0,,2120.21,0.0,1.0
24103002,ed_desserts,4,test,4,assets\ed_desserts\fudge_2.png,0,,2121.96,0.0,1.0
24103002,ed_desserts,4,test,5,assets\ed_desserts\sundae_1.png,0,,2123.69,0.0,1.0
24103002,ed_desserts,4,test,6,assets\ed_desserts\chocolate_2.png,0,,2125.53,0.0,1.0
24103002,ed_desserts,4,test,7,assets\ed_desserts\tiramisu_1.png,0,,2127.26,0.0,1.0
24103002,ed_desserts,4,test,8,assets\ed_desserts\wedding_cake_3.png,0,,2129.0,0.0,1.0
24103002,ed_desserts,4,test,9,assets\ed_desserts\whipped_cream_1.png,0,,2130.74,0.0,1.0
24103002,ed_desserts,4,test,10,assets\ed_desserts\wedding_cake_2.png,0,,2132.48,0.0,1.0
24103002,ed_desserts,4,test,11,assets\ed_desserts\popsicle_1.png,0,,2134.23,0.0,1.0
24103002,ed_desserts,4,test,12,assets\ed_desserts\fruitcake_2.png,0,,2135.96,0.0,1.0
24103002,ed_desserts,4,test,13,assets\ed_desserts\cake_3.png,0,,2137.71,0.0,1.0
24103002,ed_desserts,4,test,14,assets\ed_desserts\brownie_1.png,0,,2139.58,0.0,1.0
24103002,ed_desserts,4,test,15,assets\ed_desserts\brownie_1.png,1,0.626,2141.43,1.0,1.0
24103002,ed_desserts,4,test,16,assets\ed_desserts\sorbet_1.png,0,,2143.17,0.0,1.0
24103002,ed_desserts,4,test,17,assets\ed_desserts\sorbet_2.png,0,,2144.92,0.0,1.0
24103002,ed_desserts,4,test,18,assets\ed_desserts\chocolate_1.png,0,,2146.65,0.0,1.0
24103002,ed_desserts,4,test,19,assets\ed_desserts\fudge_3.png,0,,2148.39,0.0,1.0
24103002,ed_desserts,4,test,20,assets\ed_desserts\pudding_2.png,0,,2150.14,0.0,1.0
24103002,ed_desserts,5,test,0,assets\ed_desserts\cheesecake_1.png,0,,2157.89,,
24103002,ed_desserts,5,test,1,assets\ed_desserts\mousse_2.png,0,,2159.63,0.0,1.0
24103002,ed_desserts,5,test,2,assets\ed_desserts\chocolate_3.png,0,,2161.37,0.0,1.0
24103002,ed_desserts,5,test,3,assets\ed_desserts\cake_1.png,0,,2163.11,0.0,1.0
24103002,ed_desserts,5,test,4,assets\ed_desserts\sundae_3.png,0,,2164.84,0.0,1.0
24103002,ed_desserts,5,test,5,assets\ed_desserts\mousse_3.png,0,,2166.59,0.0,1.0
24103002,ed_desserts,5,test,6,assets\ed_desserts\cake_2.png,0,,2168.33,0.0,1.0
24103002,ed_desserts,5,test,7,assets\ed_desserts\tiramisu_3.png,0,,2170.27,0.0,1.0
24103002,ed_desserts,5,test,8,assets\ed_desserts\brownie_2.png,0,,2172.04,0.0,1.0
24103002,ed_desserts,5,test,9,assets\ed_desserts\brownie_3.png,0,,2173.8,0.0,1.0
24103002,ed_desserts,5,test,10,assets\ed_desserts\cheesecake_2.png,0,,2175.54,0.0,1.0
24103002,ed_desserts,5,test,11,assets\ed_desserts\flan_3.png,0,,2177.28,0.0,1.0
24103002,ed_desserts,5,test,12,assets\ed_desserts\sorbet_3.png,0,,2179.01,0.0,1.0
24103002,ed_desserts,5,test,13,assets\ed_desserts\whipped_cream_3.png,0,,2180.75,0.0,1.0
24103002,ed_desserts,5,test,14,assets\ed_desserts\pudding_1.png,0,,2182.49,0.0,1.0
24103002,ed_desserts,5,test,15,assets\ed_desserts\sundae_2.png,0,,2184.23,0.0,1.0
24103002,ed_desserts,5,test,16,assets\ed_desserts\parfait_1.png,0,,2185.98,0.0,1.0
24103002,ed_desserts,5,test,17,assets\ed_desserts\cupcake_1.png,0,,2187.74,0.0,1.0
24103002,ed_desserts,5,test,18,assets\ed_desserts\pudding_3.png,0,,2189.48,0.0,1.0
24103002,ed_desserts,5,test,19,assets\ed_desserts\chocolate_2.png,0,,2191.34,0.0,1.0
24103002,ed_desserts,5,test,20,assets\ed_desserts\banana_split_1.png,0,,2193.09,0.0,1.0
24103002,ed_desserts,6,test,0,assets\ed_desserts\donut_3.png,0,,2200.47,,
24103002,ed_desserts,6,test,1,assets\ed_desserts\cheesecake_3.png,0,,2202.21,0.0,1.0
24103002,ed_desserts,6,test,2,assets\ed_desserts\wedding_cake_1.png,0,,2203.95,0.0,1.0
24103002,ed_desserts,6,test,3,assets\ed_desserts\wedding_cake_3.png,0,,2205.68,0.0,1.0
24103002,ed_desserts,6,test,4,assets\ed_desserts\fruitcake_3.png,0,,2207.42,0.0,1.0
24103002,ed_desserts,6,test,5,assets\ed_desserts\parfait_3.png,0,,2209.16,0.0,1.0
24103002,ed_desserts,6,test,6,assets\ed_desserts\donut_1.png,0,,2211.08,0.0,1.0
24103002,ed_desserts,6,test,7,assets\ed_desserts\cupcake_2.png,0,,2213.08,0.0,1.0
24103002,ed_desserts,6,test,8,assets\ed_desserts\popsicle_3.png,0,,2214.81,0.0,1.0
24103002,ed_desserts,6,test,9,assets\ed_desserts\cupcake_3.png,0,,2216.72,0.0,1.0
24103002,ed_desserts,6,test,10,assets\ed_desserts\banana_split_3.png,0,,2218.45,0.0,1.0
24103002,ed_desserts,6,test,11,assets\ed_desserts\tiramisu_2.png,0,,2220.19,0.0,1.0
24103002,ed_desserts,6,test,12,assets\ed_desserts\mousse_1.png,0,,2221.93,0.0,1.0
24103002,ed_desserts,6,test,13,assets\ed_desserts\donut_2.png,0,,2223.67,0.0,1.0
24103002,ed_desserts,6,test,14,assets\ed_desserts\sundae_3.png,0,,2225.41,0.0,1.0
24103002,ed_desserts,6,test,15,assets\ed_desserts\chocolate_3.png,0,,2227.15,0.0,1.0
24103002,ed_desserts,6,test,16,assets\ed_desserts\fudge_2.png,0,,2228.89,0.0,1.0
24103002,ed_desserts,6,test,17,assets\ed_desserts\pudding_2.png,0,,2230.64,0.0,1.0
24103002,ed_desserts,6,test,18,assets\ed_desserts\whipped_cream_1.png,0,,2232.37,0.0,1.0
24103002,ed_desserts,6,test,19,assets\ed_desserts\cake_1.png,0,,2234.1,0.0,1.0
24103002,ed_desserts,6,test,20,assets\ed_desserts\brownie_3.png,0,,2235.85,0.0,1.0
24103002,ed_desserts,7,test,0,assets\ed_desserts\flan_1.png,0,,2243.16,,
24103002,ed_desserts,7,test,1,assets\ed_desserts\flan_2.png,0,,2244.89,0.0,1.0
24103002,ed_desserts,7,test,2,assets\ed_desserts\cheesecake_2.png,0,,2246.63,0.0,1.0
24103002,ed_desserts,7,test,3,assets\ed_desserts\cake_2.png,0,,2248.37,0.0,1.0
24103002,ed_desserts,7,test,4,assets\ed_desserts\cake_2.png,1,0.636,2250.11,1.0,1.0
24103002,ed_desserts,7,test,5,assets\ed_desserts\sorbet_1.png,0,,2251.85,0.0,1.0
24103002,ed_desserts,7,test,6,assets\ed_desserts\flan_3.png,0,,2253.59,0.0,1.0
24103002,ed_desserts,7,test,7,assets\ed_desserts\fudge_3.png,0,,2255.32,0.0,1.0
24103002,ed_desserts,7,test,8,assets\ed_desserts\tiramisu_3.png,0,,2257.27,0.0,1.0
24103002,ed_desserts,7,test,9,assets\ed_desserts\whipped_cream_3.png,0,,2259.02,0.0,1.0
24103002,ed_desserts,7,test,10,assets\ed_desserts\parfait_1.png,0,,2260.75,0.0,1.0
24103002,ed_desserts,7,test,11,assets\ed_desserts\banana_split_1.png,0,,2262.51,0.0,1.0
24103002,ed_desserts,7,test,12,assets\ed_desserts\banana_split_1.png,1,0.644,2264.25,1.0,1.0
24103002,ed_desserts,7,test,13,assets\ed_desserts\wedding_cake_2.png,0,,2265.98,0.0,1.0
24103002,ed_desserts,7,test,14,assets\ed_desserts\whipped_cream_2.png,0,,2267.72,0.0,1.0
24103002,ed_desserts,7,test,15,assets\ed_desserts\pudding_3.png,0,,2269.46,0.0,1.0
24103002,ed_desserts,7,test,16,assets\ed_desserts\cheesecake_3.png,0,,2271.2,0.0,1.0
24103002,ed_desserts,7,test,17,assets\ed_desserts\sorbet_3.png,0,,2272.93,0.0,1.0
24103002,ed_desserts,7,test,18,assets\ed_desserts\sorbet_3.png,1,0.645,2274.67,1.0,1.0
24103002,ed_desserts,7,test,19,assets\ed_desserts\sundae_1.png,0,,2276.4,0.0,1.0
24103002,ed_desserts,7,test,20,assets\ed_desserts\brownie_2.png,0,,2278.16,0.0,1.0
24103002,ed_desserts,8,test,0,assets\ed_desserts\wedding_cake_1.png,0,,2285.49,,
24103002,ed_desserts,8,test,1,assets\ed_desserts\chocolate_1.png,0,,2287.23,0.0,1.0
24103002,ed_desserts,8,test,2,assets\ed_desserts\cupcake_3.png,0,,2289.21,0.0,1.0
24103002,ed_desserts,8,test,3,assets\ed_desserts\pudding_1.png,0,,2290.94,0.0,1.0
24103002,ed_desserts,8,test,4,assets\ed_desserts\popsicle_3.png,0,,2292.67,0.0,1.0
24103002,ed_desserts,8,test,5,assets\ed_desserts\mousse_3.png,0,,2294.41,0.0,1.0
24103002,ed_desserts,8,test,6,assets\ed_desserts\cake_3.png,0,,2296.15,0.0,1.0
24103002,ed_desserts,8,test,7,assets\ed_desserts\cake_3.png,1,0.654,2297.89,1.0,1.0
24103002,ed_desserts,8,test,8,assets\ed_desserts\fruitcake_1.png,0,,2299.64,0.0,1.0
24103002,ed_desserts,8,test,9,assets\ed_desserts\milkshake_1.png,0,,2301.38,0.0,1.0
24103002,ed_desserts,8,test,10,assets\ed_desserts\mousse_2.png,0,,2303.12,0.0,1.0
24103002,ed_desserts,8,test,11,assets\ed_desserts\popsicle_2.png,0,,2304.86,0.0,1.0
24103002,ed_desserts,8,test,12,assets\ed_desserts\fudge_1.png,0,,2306.59,0.0,1.0
24103002,ed_desserts,8,test,13,assets\ed_desserts\tiramisu_1.png,0,,2308.32,0.0,1.0
24103002,ed_desserts,8,test,14,assets\ed_desserts\parfait_2.png,0,,2310.06,0.0,1.0
24103002,ed_desserts,8,test,15,assets\ed_desserts\fruitcake_3.png,0,,2311.79,0.0,1.0
24103002,ed_desserts,8,test,16,assets\ed_desserts\fruitcake_3.png,1,0.605,2313.53,1.0,1.0
24103002,ed_desserts,8,test,17,assets\ed_desserts\donut_3.png,0,,2315.27,0.0,1.0
24103002,ed_desserts,8,test,18,assets\ed_desserts\whipped_cream_1.png,0,,2317.0,0.0,1.0
24103002,ed_desserts,8,test,19,assets\ed_desserts\popsicle_1.png,0,,2318.74,0.0,1.0
24103002,ed_desserts,8,test,20,assets\ed_desserts\brownie_1.png,0,,2320.58,0.0,1.0
24103002,ed_desserts,9,test,0,assets\ed_desserts\fruitcake_2.png,0,,2328.1,,
24103002,ed_desserts,9,test,1,assets\ed_desserts\chocolate_2.png,0,,2329.96,0.0,1.0
24103002,ed_desserts,9,test,2,assets\ed_desserts\tiramisu_3.png,0,,2331.91,0.0,1.0
24103002,ed_desserts,9,test,3,assets\ed_desserts\wedding_cake_3.png,0,,2333.65,0.0,1.0
24103002,ed_desserts,9,test,4,assets\ed_desserts\parfait_1.png,0,,2335.38,0.0,1.0
24103002,ed_desserts,9,test,5,assets\ed_desserts\flan_3.png,0,,2337.12,0.0,1.0
24103002,ed_desserts,9,test,6,assets\ed_desserts\parfait_3.png,0,,2338.86,0.0,1.0
24103002,ed_desserts,9,test,7,assets\ed_desserts\banana_split_1.png,0,,2340.61,0.0,1.0
24103002,ed_desserts,9,test,8,assets\ed_desserts\donut_1.png,0,,2342.52,0.0,1.0
24103002,ed_desserts,9,test,9,assets\ed_desserts\brownie_3.png,0,,2344.27,0.0,1.0
24103002,ed_desserts,9,test,10,assets\ed_desserts\brownie_3.png,1,0.817,2346.03,1.0,1.0
24103002,ed_desserts,9,test,11,assets\ed_desserts\cheesecake_1.png,0,,2347.78,0.0,1.0
24103002,ed_desserts,9,test,12,assets\ed_desserts\milkshake_2.png,0,,2349.51,0.0,1.0
24103002,ed_desserts,9,test,13,assets\ed_desserts\tiramisu_2.png,0,,2351.25,0.0,1.0
24103002,ed_desserts,9,test,14,assets\ed_desserts\pudding_3.png,0,,2352.99,0.0,1.0
24103002,ed_desserts,9,test,15,assets\ed_desserts\cheesecake_2.png,0,,2354.73,0.0,1.0
24103002,ed_desserts,9,test,16,assets\ed_desserts\brownie_2.png,0,,2356.49,0.0,1.0
24103002,ed_desserts,9,test,17,assets\ed_desserts\flan_2.png,0,,2358.22,0.0,1.0
24103002,ed_desserts,9,test,18,assets\ed_desserts\cupcake_2.png,0,,2360.21,0.0,1.0
24103002,ed_desserts,9,test,19,assets\ed_desserts\wedding_cake_2.png,0,,2361.95,0.0,1.0
24103002,ed_desserts,9,test,20,assets\ed_desserts\fruitcake_1.png,0,,2363.68,0.0,1.0
24103002,ed_desserts,10,test,0,assets\ed_desserts\fudge_2.png,0,,2371.7,,
24103002,ed_desserts,10,test,1,assets\ed_desserts\cupcake_1.png,0,,2373.46,0.0,1.0
24103002,ed_desserts,10,test,2,assets\ed_desserts\popsicle_2.png,0,,2375.2,0.0,1.0
24103002,ed_desserts,10,test,3,assets\ed_desserts\sorbet_3.png,0,,2376.94,0.0,1.0
24103002,ed_desserts,10,test,4,assets\ed_desserts\sorbet_3.png,1,0.506,2378.67,1.0,1.0
24103002,ed_desserts,10,test,5,assets\ed_desserts\mousse_3.png,0,,2380.41,0.0,1.0
24103002,ed_desserts,10,test,6,assets\ed_desserts\cake_3.png,0,,2382.15,0.0,1.0
24103002,ed_desserts,10,test,7,assets\ed_desserts\cake_1.png,0,,2383.89,0.0,1.0
24103002,ed_desserts,10,test,8,assets\ed_desserts\pudding_1.png,0,,2385.62,0.0,1.0
24103002,ed_desserts,10,test,9,assets\ed_desserts\fudge_1.png,0,,2387.36,0.0,1.0
24103002,ed_desserts,10,test,10,assets\ed_desserts\whipped_cream_1.png,0,,2389.09,0.0,1.0
24103002,ed_desserts,10,test,11,assets\ed_desserts\whipped_cream_1.png,1,0.62,2390.82,1.0,1.0
24103002,ed_desserts,10,test,12,assets\ed_desserts\milkshake_3.png,0,,2392.56,0.0,1.0
24103002,ed_desserts,10,test,13,assets\ed_desserts\sorbet_1.png,0,,2394.3,0.0,1.0
24103002,ed_desserts,10,test,14,assets\ed_desserts\sorbet_2.png,0,,2396.06,0.0,1.0
24103002,ed_desserts,10,test,15,assets\ed_desserts\fruitcake_3.png,0,,2397.79,0.0,1.0
24103002,ed_desserts,10,test,16,assets\ed_desserts\wedding_cake_3.png,0,,2399.53,0.0,1.0
24103002,ed_desserts,10,test,17,assets\ed_desserts\donut_2.png,0,,2401.27,0.0,1.0
24103002,ed_desserts,10,test,18,assets\ed_desserts\brownie_1.png,0,,2403.12,0.0,1.0
24103002,ed_desserts,10,test,19,assets\ed_desserts\parfait_1.png,0,,2404.86,0.0,1.0
24103002,ed_desserts,10,test,20,assets\ed_desserts\fruitcake_2.png,0,,2406.59,0.0,1.0
24103002,ed_instruments,1,test,0,assets\ed_instruments\gong_2.png,0,,2424.1,,
24103002,ed_instruments,1,test,1,assets\ed_instruments\kazoo_2.png,0,,2425.83,0.0,1.0
24103002,ed_instruments,1,test,2,assets\ed_instruments\kazoo_2.png,1,0.513,2427.56,1.0,1.0
24103002,ed_instruments,1,test,3,assets\ed_instruments\kazoo_2.png,1,0.61,2429.29,1.0,1.0
24103002,ed_instruments,1,test,4,assets\ed_instruments\cello_3.png,0,,2431.03,0.0,1.0
24103002,ed_instruments,1,test,5,assets\ed_instruments\cello_3.png,1,0.547,2432.77,1.0,1.0
24103002,ed_instruments,1,test,6,assets\ed_instruments\cymbal_2.png,0,,2434.57,0.0,1.0
24103002,ed_instruments,1,test,7,assets\ed_instruments\bongo_3.png,0,,2436.32,0.0,1.0
24103002,ed_instruments,1,test,8,assets\ed_instruments\ukulele_1.png,0,,2438.07,0.0,1.0
24103002,ed_instruments,1,test,9,assets\ed_instruments\trumpet_2.png,0,,2439.84,0.0,1.0
24103002,ed_instruments,1,test,10,assets\ed_instruments\banjo_3.png,0,,2441.67,0.0,1.0
24103002,ed_instruments,1,test,11,assets\ed_instruments\tuba_1.png,0,,2443.41,0.0,1.0
24103002,ed_instruments,1,test,12,assets\ed_instruments\piano_2.png,0,,2445.16,0.0,1.0
24103002,ed_instruments,1,test,13,assets\ed_instruments\tambourine_3.png,0,,2447.0,0.0,1.0
24103002,ed_instruments,1,test,14,assets\ed_instruments\harmonica_1.png,0,,2448.73,0.0,1.0
24103002,ed_instruments,1,test,15,assets\ed_instruments\kazoo_1.png,0,,2450.47,0.0,1.0
24103002,ed_instruments,1,test,16,assets\ed_instruments\violin_2.png,0,,2452.22,0.0,1.0
24103002,ed_instruments,1,test,17,assets\ed_instruments\violin_2.png,1,0.538,2453.97,1.0,1.0
24103002,ed_instruments,1,test,18,assets\ed_instruments\gong_3.png,0,,2455.72,0.0,1.0
24103002,ed_instruments,1,test,19,assets\ed_instruments\cello_2.png,0,,2457.46,0.0,1.0
24103002,ed_instruments,1,test,20,assets\ed_instruments\mandolin_2.png,0,,2459.22,0.0,1.0
24103002,ed_instruments,2,test,0,assets\ed_instruments\saxophone_3.png,0,,2467.21,,
24103002,ed_instruments,2,test,1,assets\ed_instruments\chime_3.png,0,,2468.97,0.0,1.0
24103002,ed_instruments,2,test,2,assets\ed_instruments\bongo_1.png,0,,2470.72,0.0,1.0
24103002,ed_instruments,2,test,3,assets\ed_instruments\chime_1.png,0,,2472.49,0.0,1.0
24103002,ed_instruments,2,test,4,assets\ed_instruments\gong_1.png,0,,2474.44,0.0,1.0
24103002,ed_instruments,2,test,5,assets\ed_instruments\tambourine_1.png,0,,2476.19,0.0,1.0
24103002,ed_instruments,2,test,6,assets\ed_instruments\bagpipe_1.png,0,,2477.93,0.0,1.0
24103002,ed_instruments,2,test,7,assets\ed_instruments\bell_2.png,0,,2479.92,0.0,1.0
24103002,ed_instruments,2,test,8,assets\ed_instruments\ukulele_2.png,0,,2481.67,0.0,1.0
24103002,ed_instruments,2,test,9,assets\ed_instruments\cello_1.png,0,,2483.48,0.0,1.0
24103002,ed_instruments,2,test,10,assets\ed_instruments\cymbal_3.png,0,,2485.29,0.0,1.0
24103002,ed_instruments,2,test,11,assets\ed_instruments\flute_1.png,0,,2487.04,0.0,1.0
24103002,ed_instruments,2,test,12,assets\ed_instruments\flute_2.png,0,,2488.79,0.0,1.0
24103002,ed_instruments,2,test,13,assets\ed_instruments\banjo_1.png,0,,2490.55,0.0,1.0
24103002,ed_instruments,2,test,14,assets\ed_instruments\violin_1.png,0,,2492.3,0.0,1.0
24103002,ed_instruments,2,test,15,assets\ed_instruments\harmonica_2.png,0,,2494.06,0.0,1.0
24103002,ed_instruments,2,test,16,assets\ed_instruments\kazoo_2.png,0,,2495.78,0.0,1.0
24103002,ed_instruments,2,test,17,assets\ed_instruments\flute_3.png,0,,2497.54,0.0,1.0
24103002,ed_instruments,2,test,18,assets\ed_instruments\trumpet_1.png,0,,2499.29,0.0,1.0
24103002,ed_instruments,2,test,19,assets\ed_instruments\trumpet_1.png,1,0.613,2501.02,1.0,1.0
24103002,ed_instruments,2,test,20,assets\ed_instruments\mandolin_1.png,0,,2502.77,0.0,1.0
24103002,ed_instruments,3,test,0,assets\ed_instruments\accordian_2.png,0,,2510.28,,
24103002,ed_instruments,3,test,1,assets\ed_instruments\kazoo_3.png,0,,2512.01,0.0,1.0
24103002,ed_instruments,3,test,2,assets\ed_instruments\piano_1.png,0,,2513.78,0.0,1.0
24103002,ed_instruments,3,test,3,assets\ed_instruments\piano_3.png,0,,2515.52,0.0,1.0
24103002,ed_instruments,3,test,4,assets\ed_instruments\accordian_1.png,1,0.104,2517.3,0.0,0.0
24103002,ed_instruments,3,test,5,assets\ed_instruments\accordian_1.png,1,0.408,2519.07,1.0,1.0
24103002,ed_instruments,3,test,6,assets\ed_instruments\ukulele_3.png,0,,2520.89,0.0,1.0
24103002,ed_instruments,3,test,7,assets\ed_instruments\tuba_2.png,0,,2522.79,0.0,1.0
24103002,ed_instruments,3,test,8,assets\ed_instruments\bongo_2.png,0,,2524.54,0.0,1.0
24103002,ed_instruments,3,test,9,assets\ed_instruments\bagpipe_2.png,0,,2526.38,0.0,1.0
24103002,ed_instruments,3,test,10,assets\ed_instruments\trumpet_3.png,0,,2528.11,0.0,1.0
24103002,ed_instruments,3,test,11,assets\ed_instruments\tuba_1.png,0,,2529.85,0.0,1.0
24103002,ed_instruments,3,test,12,assets\ed_instruments\cymbal_1.png,0,,2531.79,0.0,1.0
24103002,ed_instruments,3,test,13,assets\ed_instruments\bell_3.png,0,,2533.56,0.0,1.0
24103002,ed_instruments,3,test,14,assets\ed_instruments\saxophone_2.png,0,,2535.32,0.0,1.0
24103002,ed_instruments,3,test,15,assets\ed_instruments\saxophone_1.png,0,,2537.09,0.0,1.0
24103002,ed_instruments,3,test,16,assets\ed_instruments\banjo_2.png,0,,2538.84,0.0,1.0
24103002,ed_instruments,3,test,17,assets\ed_instruments\gong_3.png,0,,2540.58,0.0,1.0
24103002,ed_instruments,3,test,18,assets\ed_instruments\tambourine_3.png,0,,2542.41,0.0,1.0
24103002,ed_instruments,3,test,19,assets\ed_instruments\violin_2.png,0,,2544.16,0.0,1.0
24103002,ed_instruments,3,test,20,assets\ed_instruments\cello_3.png,0,,2545.89,0.0,1.0
24103002,ed_instruments,4,test,0,assets\ed_instruments\chime_3.png,0,,2553.26,,
24103002,ed_instruments,4,test,1,assets\ed_instruments\bell_2.png,0,,2555.26,0.0,1.0
24103002,ed_instruments,4,test,2,assets\ed_instruments\tambourine_2.png,0,,2557.02,0.0,1.0
24103002,ed_instruments,4,test,3,assets\ed_instruments\flute_2.png,0,,2558.76,0.0,1.0
24103002,ed_instruments,4,test,4,assets\ed_instruments\flute_2.png,1,0.54,2560.49,1.0,1.0
24103002,ed_instruments,4,test,5,assets\ed_instruments\bagpipe_3.png,0,,2562.24,0.0,1.0
24103002,ed_instruments,4,test,6,assets\ed_instruments\ukulele_1.png,0,,2563.97,0.0,1.0
24103002,ed_instruments,4,test,7,assets\ed_instruments\kazoo_1.png,0,,2565.7,0.0,1.0
24103002,ed_instruments,4,test,8,assets\ed_instruments\kazoo_2.png,0,,2567.43,0.0,1.0
24103002,ed_instruments,4,test,9,assets\ed_instruments\gong_2.png,0,,2569.17,0.0,1.0
24103002,ed_instruments,4,test,10,assets\ed_instruments\mandolin_2.png,0,,2570.92,0.0,1.0
24103002,ed_instruments,4,test,11,assets\ed_instruments\violin_3.png,0,,2572.85,0.0,1.0
24103002,ed_instruments,4,test,12,assets\ed_instruments\bongo_1.png,0,,2574.58,0.0,1.0
24103002,ed_instruments,4,test,13,assets\ed_instruments\chime_1.png,0,,2576.33,0.0,1.0
24103002,ed_instruments,4,test,14,assets\ed_instruments\bagpipe_1.png,0,,2578.07,0.0,1.0
24103002,ed_instruments,4,test,15,assets\ed_instruments\accoridan_3.png,0,,2579.82,0.0,1.0
24103002,ed_instruments,4,test,16,assets\ed_instruments\bell_1.png,0,,2581.56,0.0,1.0
24103002,ed_instruments,4,test,17,assets\ed_instruments\bell_1.png,1,0.52,2583.29,1.0,1.0
24103002,ed_instruments,4,test,18,assets\ed_instruments\harmonica_2.png,0,,2585.05,0.0,1.0
24103002,ed_instruments,4,test,19,assets\ed_instruments\mandolin_3.png,0,,2586.8,0.0,1.0
24103002,ed_instruments,4,test,20,assets\ed_instruments\piano_3.png,0,,2588.53,0.0,1.0
24103002,ed_instruments,5,test,0,assets\ed_instruments\chime_2.png,0,,2595.88,,
24103002,ed_instruments,5,test,1,assets\ed_instruments\banjo_3.png,0,,2597.67,0.0,1.0
24103002,ed_instruments,5,test,2,assets\ed_instruments\tuba_3.png,0,,2599.42,0.0,1.0
24103002,ed_instruments,5,test,3,assets\ed_instruments\cello_1.png,0,,2601.23,0.0,1.0
24103002,ed_instruments,5,test,4,assets\ed_instruments\tambourine_1.png,0,,2602.98,0.0,1.0
24103002,ed_instruments,5,test,5,assets\ed_instruments\bongo_2.png,0,,2604.71,0.0,1.0
24103002,ed_instruments,5,test,6,assets\ed_instruments\ukulele_3.png,0,,2606.5,0.0,1.0
24103002,ed_instruments,5,test,7,assets\ed_instruments\accordian_2.png,0,,2608.28,0.0,1.0
24103002,ed_instruments,5,test,8,assets\ed_instruments\piano_1.png,0,,2610.04,0.0,1.0
24103002,ed_instruments,5,test,9,assets\ed_instruments\piano_1.png,1,0.576,2611.79,1.0,1.0
24103002,ed_instruments,5,test,10,assets\ed_instruments\trumpet_1.png,0,,2613.53,0.0,1.0
24103002,ed_instruments,5,test,11,assets\ed_instruments\trumpet_2.png,0,,2615.29,0.0,1.0
24103002,ed_instruments,5,test,12,assets\ed_instruments\banjo_1.png,0,,2617.03,0.0,1.0
24103002,ed_instruments,5,test,13,assets\ed_instruments\banjo_2.png,0,,2618.77,0.0,1.0
24103002,ed_instruments,5,test,14,assets\ed_instruments\trumpet_3.png,0,,2620.5,0.0,1.0
24103002,ed_instruments,5,test,15,assets\ed_instruments\flute_1.png,0,,2622.23,0.0,1.0
24103002,ed_instruments,5,test,16,assets\ed_instruments\bell_2.png,0,,2624.23,0.0,1.0
24103002,ed_instruments,5,test,17,assets\ed_instruments\cello_3.png,0,,2625.97,0.0,1.0
24103002,ed_instruments,5,test,18,assets\ed_instruments\cello_3.png,1,0.568,2627.71,1.0,1.0
24103002,ed_instruments,5,test,19,assets\ed_instruments\saxophone_3.png,0,,2629.48,0.0,1.0
24103002,ed_instruments,5,test,20,assets\ed_instruments\ukulele_1.png,0,,2631.21,0.0,1.0
24103002,ed_instruments,6,test,0,assets\ed_instruments\mandolin_1.png,0,,2638.81,,
24103002,ed_instruments,6,test,1,assets\ed_instruments\kazoo_1.png,0,,2640.54,0.0,1.0
24103002,ed_instruments,6,test,2,assets\ed_instruments\violin_2.png,0,,2642.29,0.0,1.0
24103002,ed_instruments,6,test,3,assets\ed_instruments\saxophone_1.png,0,,2644.03,0.0,1.0
24103002,ed_instruments,6,test,4,assets\ed_instruments\flute_2.png,0,,2645.76,0.0,1.0
24103002,ed_instruments,6,test,5,assets\ed_instruments\cymbal_2.png,0,,2647.54,0.0,1.0
24103002,ed_instruments,6,test,6,assets\ed_instruments\chime_3.png,0,,2649.3,0.0,1.0
24103002,ed_instruments,6,test,7,assets\ed_instruments\bongo_1.png,0,,2651.03,0.0,1.0
24103002,ed_instruments,6,test,8,assets\ed_instruments\violin_3.png,0,,2652.95,0.0,1.0
24103002,ed_instruments,6,test,9,assets\ed_instruments\harmonica_1.png,0,,2654.68,0.0,1.0
24103002,ed_instruments,6,test,10,assets\ed_instruments\bell_1.png,0,,2656.42,0.0,1.0
24103002,ed_instruments,6,test,11,assets\ed_instruments\accoridan_3.png,0,,2658.16,0.0,1.0
24103002,ed_instruments,6,test,12,assets\ed_instruments\mandolin_2.png,0,,2659.93,0.0,1.0
24103002,ed_instruments,6,test,13,assets\ed_instruments\gong_1.png,0,,2661.89,0.0,1.0
24103002,ed_instruments,6,test,14,assets\ed_instruments\tuba_3.png,0,,2663.63,0.0,1.0
24103002,ed_instruments,6,test,15,assets\ed_instruments\bagpipe_1.png,0,,2665.38,0.0,1.0
24103002,ed_instruments,6,test,16,assets\ed_instruments\flute_3.png,0,,2667.14,0.0,1.0
24103002,ed_instruments,6,test,17,assets\ed_instruments\cello_1.png,0,,2668.96,0.0,1.0
24103002,ed_instruments,6,test,18,assets\ed_instruments\cello_1.png,1,0.591,2670.74,1.0,1.0
24103002,ed_instruments,6,test,19,assets\ed_instruments\gong_3.png,0,,2672.48,0.0,1.0
24103002,ed_instruments,6,test,20,assets\ed_instruments\ukulele_2.png,0,,2674.21,0.0,1.0
24103002,ed_instruments,7,test,0,assets\ed_instruments\harmonica_3.png,0,,2681.69,,
24103002,ed_instruments,7,test,1,assets\ed_instruments\accordian_1.png,0,,2683.46,0.0,1.0
24103002,ed_instruments,7,test,2,assets\ed_instruments\accordian_2.png,0,,2685.23,0.0,1.0
24103002,ed_instruments,7,test,3,assets\ed_instruments\tambourine_3.png,0,,2687.03,0.0,1.0
24103002,ed_instruments,7,test,4,assets\ed_instruments\tambourine_3.png,1,0.547,2688.83,1.0,1.0
24103002,ed_instruments,7,test,5,assets\ed_instruments\tuba_2.png,0,,2690.73,0.0,1.0
24103002,ed_instruments,7,test,6,assets\ed_instruments\bagpipe_3.png,0,,2692.48,0.0,1.0
24103002,ed_instruments,7,test,7,assets\ed_instruments\piano_2.png,0,,2694.21,0.0,1.0
24103002,ed_instruments,7,test,8,assets\ed_instruments\ukulele_3.png,0,,2696.03,0.0,1.0
24103002,ed_instruments,7,test,9,assets\ed_instruments\bell_3.png,0,,2697.8,0.0,1.0
24103002,ed_instruments,7,test,10,assets\ed_instruments\trumpet_1.png,0,,2699.54,0.0,1.0
24103002,ed_instruments,7,test,11,assets\ed_instruments\cello_3.png,0,,2701.27,0.0,1.0
24103002,ed_instruments,7,test,12,assets\ed_instruments\trumpet_2.png,0,,2703.04,0.0,1.0
24103002,ed_instruments,7,test,13,assets\ed_instruments\flute_1.png,0,,2704.77,0.0,1.0
24103002,ed_instruments,7,test,14,assets\ed_instruments\violin_2.png,0,,2706.53,0.0,1.0
24103002,ed_instruments,7,test,15,assets\ed_instruments\saxophone_2.png,0,,2708.28,0.0,1.0
24103002,ed_instruments,7,test,16,assets\ed_instruments\saxophone_2.png,1,0.532,2710.02,1.0,1.0
24103002,ed_instruments,7,test,17,assets\ed_instruments\harmonica_2.png,0,,2711.77,0.0,1.0
24103002,ed_instruments,7,test,18,assets\ed_instruments\bagpipe_2.png,0,,2713.56,0.0,1.0
24103002,ed_instruments,7,test,19,assets\ed_instruments\flute_2.png,0,,2715.29,0.0,1.0
24103002,ed_instruments,7,test,20,assets\ed_instruments\kazoo_2.png,0,,2717.02,0.0,1.0
24103002,ed_instruments,8,test,0,assets\ed_instruments\chime_3.png,0,,2724.56,,
24103002,ed_instruments,8,test,1,assets\ed_instruments\tambourine_2.png,0,,2726.31,0.0,1.0
24103002,ed_instruments,8,test,2,assets\ed_instruments\tuba_1.png,0,,2728.04,0.0,1.0
