subject,condition,block,procedure,trial,item,response,RT,time,correct,accuracy
24102901,cl_tools,1,test,0,assets\cl_tools\tools_56.png,0,,54.7,,
24102901,cl_tools,1,test,1,assets\cl_tools\tools_2.png,0,,56.44,0.0,1.0
24102901,cl_tools,1,test,2,assets\cl_tools\tools_53.png,0,,58.18,0.0,1.0
24102901,cl_tools,1,test,3,assets\cl_tools\tools_86.png,0,,59.91,0.0,1.0
24102901,cl_tools,1,test,4,assets\cl_tools\tools_70.png,0,,61.65,0.0,1.0
24102901,cl_tools,1,test,5,assets\cl_tools\tools_67.png,0,,63.38,0.0,1.0
24102901,cl_tools,1,test,6,assets\cl_tools\tools_8.png,0,,65.12,0.0,1.0
24102901,cl_tools,1,test,7,assets\cl_tools\tools_8.png,0,,66.85,1.0,0.0
24102901,cl_tools,1,test,8,assets\cl_tools\tools_8.png,1,0.711,68.57,1.0,1.0
24102901,cl_tools,1,test,9,assets\cl_tools\tools_4.png,0,,70.31,0.0,1.0
24102901,cl_tools,1,test,10,assets\cl_tools\tools_42.png,0,,72.04,0.0,1.0
24102901,cl_tools,1,test,11,assets\cl_tools\tools_85.png,0,,73.77,0.0,1.0
24102901,cl_tools,1,test,12,assets\cl_tools\tools_65.png,0,,75.51,0.0,1.0
24102901,cl_tools,1,test,13,assets\cl_tools\tools_1.png,0,,77.24,0.0,1.0
24102901,cl_tools,1,test,14,assets\cl_tools\tools_76.png,0,,78.97,0.0,1.0
24102901,cl_tools,1,test,15,assets\cl_tools\tools_32.png,0,,80.71,0.0,1.0
24102901,cl_tools,1,test,16,assets\cl_tools\tools_16.png,0,,82.44,0.0,1.0
24102901,cl_tools,1,test,17,assets\cl_tools\tools_74.png,0,,84.18,0.0,1.0
24102901,cl_tools,1,test,18,assets\cl_tools\tools_39.png,0,,85.91,0.0,1.0
24102901,cl_tools,1,test,19,assets\cl_tools\tools_17.png,0,,87.64,0.0,1.0
24102901,cl_tools,1,test,20,assets\cl_tools\tools_83.png,0,,89.37,0.0,1.0
24102901,cl_tools,2,test,0,assets\cl_tools\tools_88.png,0,,98.68,,
24102901,cl_tools,2,test,1,assets\cl_tools\tools_73.png,0,,100.42,0.0,1.0
24102901,cl_tools,2,test,2,assets\cl_tools\tools_77.png,0,,102.15,0.0,1.0
24102901,cl_tools,2,test,3,assets\cl_tools\tools_69.png,0,,103.89,0.0,1.0
24102901,cl_tools,2,test,4,assets\cl_tools\tools_30.png,0,,105.62,0.0,1.0
24102901,cl_tools,2,test,5,assets\cl_tools\tools_15.png,0,,107.35,0.0,1.0
24102901,cl_tools,2,test,6,assets\cl_tools\tools_47.png,0,,109.09,0.0,1.0
24102901,cl_tools,2,test,7,assets\cl_tools\tools_29.png,0,,110.82,0.0,1.0
24102901,cl_tools,2,test,8,assets\cl_tools\tools_24.png,0,,112.55,0.0,1.0
24102901,cl_tools,2,test,9,assets\cl_tools\tools_33.png,0,,114.29,0.0,1.0
24102901,cl_tools,2,test,10,assets\cl_tools\tools_31.png,0,,116.02,0.0,1.0
24102901,cl_tools,2,test,11,assets\cl_tools\tools_44.png,0,,117.75,0.0,1.0
24102901,cl_tools,2,test,12,assets\cl_tools\tools_44.png,1,0.518,119.48,1.0,1.0
24102901,cl_tools,2,test,13,assets\cl_tools\tools_13.png,0,,121.22,0.0,1.0
24102901,cl_tools,2,test,14,assets\cl_tools\tools_80.png,0,,122.95,0.0,1.0
24102901,cl_tools,2,test,15,assets\cl_tools\tools_21.png,0,,124.68,0.0,1.0
24102901,cl_tools,2,test,16,assets\cl_tools\tools_5.png,0,,126.41,0.0,1.0
24102901,cl_tools,2,test,17,assets\cl_tools\tools_22.png,0,,128.15,0.0,1.0
24102901,cl_tools,2,test,18,assets\cl_tools\tools_50.png,0,,129.88,0.0,1.0
24102901,cl_tools,2,test,19,assets\cl_tools\tools_72.png,0,,131.61,0.0,1.0
24102901,cl_tools,2,test,20,assets\cl_tools\tools_52.png,0,,133.34,0.0,1.0
24102901,cl_tools,3,test,0,assets\cl_tools\tools_66.png,0,,141.19,,
24102901,cl_tools,3,test,1,assets\cl_tools\tools_53.png,0,,142.91,0.0,1.0
24102901,cl_tools,3,test,2,assets\cl_tools\tools_27.png,0,,144.64,0.0,1.0
24102901,cl_tools,3,test,3,assets\cl_tools\tools_61.png,0,,146.38,0.0,1.0
24102901,cl_tools,3,test,4,assets\cl_tools\tools_54.png,0,,148.11,0.0,1.0
24102901,cl_tools,3,test,5,assets\cl_tools\tools_82.png,0,,149.84,0.0,1.0
24102901,cl_tools,3,test,6,assets\cl_tools\tools_82.png,1,0.576,151.57,1.0,1.0
24102901,cl_tools,3,test,7,assets\cl_tools\tools_82.png,1,0.424,153.3,1.0,1.0
24102901,cl_tools,3,test,8,assets\cl_tools\tools_67.png,0,,155.03,0.0,1.0
24102901,cl_tools,3,test,9,assets\cl_tools\tools_67.png,1,0.346,156.75,1.0,1.0
24102901,cl_tools,3,test,10,assets\cl_tools\tools_74.png,0,,158.48,0.0,1.0
24102901,cl_tools,3,test,11,assets\cl_tools\tools_74.png,1,0.344,160.21,1.0,1.0
24102901,cl_tools,3,test,12,assets\cl_tools\tools_84.png,0,,161.95,0.0,1.0
24102901,cl_tools,3,test,13,assets\cl_tools\tools_86.png,0,,163.67,0.0,1.0
24102901,cl_tools,3,test,14,assets\cl_tools\tools_59.png,0,,165.41,0.0,1.0
24102901,cl_tools,3,test,15,assets\cl_tools\tools_59.png,1,0.423,167.13,1.0,1.0
24102901,cl_tools,3,test,16,assets\cl_tools\tools_59.png,1,0.422,168.86,1.0,1.0
24102901,cl_tools,3,test,17,assets\cl_tools\tools_7.png,0,,170.6,0.0,1.0
24102901,cl_tools,3,test,18,assets\cl_tools\tools_10.png,0,,172.33,0.0,1.0
24102901,cl_tools,3,test,19,assets\cl_tools\tools_79.png,0,,174.07,0.0,1.0
24102901,cl_tools,3,test,20,assets\cl_tools\tools_39.png,0,,175.79,0.0,1.0
24102901,cl_tools,4,test,0,assets\cl_tools\tools_32.png,0,,183.92,,
24102901,cl_tools,4,test,1,assets\cl_tools\tools_90.png,0,,185.66,0.0,1.0
24102901,cl_tools,4,test,2,assets\cl_tools\tools_49.png,0,,187.39,0.0,1.0
24102901,cl_tools,4,test,3,assets\cl_tools\tools_8.png,0,,189.12,0.0,1.0
24102901,cl_tools,4,test,4,assets\cl_tools\tools_35.png,0,,190.85,0.0,1.0
24102901,cl_tools,4,test,5,assets\cl_tools\tools_38.png,0,,192.59,0.0,1.0
24102901,cl_tools,4,test,6,assets\cl_tools\tools_43.png,0,,194.32,0.0,1.0
24102901,cl_tools,4,test,7,assets\cl_tools\tools_24.png,0,,196.06,0.0,1.0
24102901,cl_tools,4,test,8,assets\cl_tools\tools_24.png,1,0.518,197.78,1.0,1.0
24102901,cl_tools,4,test,9,assets\cl_tools\tools_34.png,0,,199.52,0.0,1.0
24102901,cl_tools,4,test,10,assets\cl_tools\tools_70.png,0,,201.25,0.0,1.0
24102901,cl_tools,4,test,11,assets\cl_tools\tools_88.png,0,,202.97,0.0,1.0
24102901,cl_tools,4,test,12,assets\cl_tools\tools_60.png,0,,204.71,0.0,1.0
24102901,cl_tools,4,test,13,assets\cl_tools\tools_60.png,1,0.48,206.44,1.0,1.0
24102901,cl_tools,4,test,14,assets\cl_tools\tools_48.png,0,,208.17,0.0,1.0
24102901,cl_tools,4,test,15,assets\cl_tools\tools_55.png,0,,209.91,0.0,1.0
24102901,cl_tools,4,test,16,assets\cl_tools\tools_5.png,0,,211.64,0.0,1.0
24102901,cl_tools,4,test,17,assets\cl_tools\tools_89.png,0,,213.37,0.0,1.0
24102901,cl_tools,4,test,18,assets\cl_tools\tools_25.png,0,,215.11,0.0,1.0
24102901,cl_tools,4,test,19,assets\cl_tools\tools_25.png,1,0.467,216.83,1.0,1.0
24102901,cl_tools,4,test,20,assets\cl_tools\tools_45.png,0,,218.57,0.0,1.0
24102901,cl_tools,5,test,0,assets\cl_tools\tools_57.png,0,,227.87,,
24102901,cl_tools,5,test,1,assets\cl_tools\tools_21.png,0,,229.6,0.0,1.0
24102901,cl_tools,5,test,2,assets\cl_tools\tools_18.png,0,,231.33,0.0,1.0
24102901,cl_tools,5,test,3,assets\cl_tools\tools_23.png,0,,233.06,0.0,1.0
24102901,cl_tools,5,test,4,assets\cl_tools\tools_66.png,0,,234.79,0.0,1.0
24102901,cl_tools,5,test,5,assets\cl_tools\tools_20.png,0,,236.53,0.0,1.0
24102901,cl_tools,5,test,6,assets\cl_tools\tools_63.png,0,,238.26,0.0,1.0
24102901,cl_tools,5,test,7,assets\cl_tools\tools_84.png,0,,239.99,0.0,1.0
24102901,cl_tools,5,test,8,assets\cl_tools\tools_14.png,0,,241.71,0.0,1.0
24102901,cl_tools,5,test,9,assets\cl_tools\tools_40.png,0,,243.45,0.0,1.0
24102901,cl_tools,5,test,10,assets\cl_tools\tools_68.png,0,,245.18,0.0,1.0
24102901,cl_tools,5,test,11,assets\cl_tools\tools_26.png,0,,246.92,0.0,1.0
24102901,cl_tools,5,test,12,assets\cl_tools\tools_56.png,0,,248.65,0.0,1.0
24102901,cl_tools,5,test,13,assets\cl_tools\tools_62.png,0,,250.39,0.0,1.0
24102901,cl_tools,5,test,14,assets\cl_tools\tools_73.png,0,,252.11,0.0,1.0
24102901,cl_tools,5,test,15,assets\cl_tools\tools_7.png,0,,253.84,0.0,1.0
24102901,cl_tools,5,test,16,assets\cl_tools\tools_76.png,0,,255.57,0.0,1.0
24102901,cl_tools,5,test,17,assets\cl_tools\tools_36.png,0,,257.31,0.0,1.0
24102901,cl_tools,5,test,18,assets\cl_tools\tools_46.png,0,,259.04,0.0,1.0
24102901,cl_tools,5,test,19,assets\cl_tools\tools_9.png,0,,260.78,0.0,1.0
24102901,cl_tools,5,test,20,assets\cl_tools\tools_54.png,0,,262.51,0.0,1.0
24102901,cl_tools,6,test,0,assets\cl_tools\tools_44.png,0,,269.98,,
24102901,cl_tools,6,test,1,assets\cl_tools\tools_4.png,0,,271.71,0.0,1.0
24102901,cl_tools,6,test,2,assets\cl_tools\tools_83.png,0,,273.43,0.0,1.0
24102901,cl_tools,6,test,3,assets\cl_tools\tools_41.png,0,,275.17,0.0,1.0
24102901,cl_tools,6,test,4,assets\cl_tools\tools_38.png,0,,276.9,0.0,1.0
24102901,cl_tools,6,test,5,assets\cl_tools\tools_48.png,0,,278.63,0.0,1.0
24102901,cl_tools,6,test,6,assets\cl_tools\tools_61.png,0,,280.36,0.0,1.0
24102901,cl_tools,6,test,7,assets\cl_tools\tools_61.png,1,0.496,282.09,1.0,1.0
24102901,cl_tools,6,test,8,assets\cl_tools\tools_61.png,1,0.417,283.81,1.0,1.0
24102901,cl_tools,6,test,9,assets\cl_tools\tools_74.png,0,,285.54,0.0,1.0
24102901,cl_tools,6,test,10,assets\cl_tools\tools_33.png,0,,287.27,0.0,1.0
24102901,cl_tools,6,test,11,assets\cl_tools\tools_33.png,1,0.6,289.0,1.0,1.0
24102901,cl_tools,6,test,12,assets\cl_tools\tools_8.png,0,,290.73,0.0,1.0
24102901,cl_tools,6,test,13,assets\cl_tools\tools_51.png,0,,292.46,0.0,1.0
24102901,cl_tools,6,test,14,assets\cl_tools\tools_69.png,0,,294.19,0.0,1.0
24102901,cl_tools,6,test,15,assets\cl_tools\tools_45.png,0,,295.92,0.0,1.0
24102901,cl_tools,6,test,16,assets\cl_tools\tools_86.png,0,,297.65,0.0,1.0
24102901,cl_tools,6,test,17,assets\cl_tools\tools_82.png,0,,299.37,0.0,1.0
24102901,cl_tools,6,test,18,assets\cl_tools\tools_21.png,0,,301.1,0.0,1.0
24102901,cl_tools,6,test,19,assets\cl_tools\tools_1.png,0,,302.83,0.0,1.0
24102901,cl_tools,6,test,20,assets\cl_tools\tools_88.png,0,,304.56,0.0,1.0
24102901,cl_tools,7,test,0,assets\cl_tools\tools_80.png,1,0.189,314.11,,
24102901,cl_tools,7,test,1,assets\cl_tools\tools_87.png,0,,315.85,0.0,1.0
24102901,cl_tools,7,test,2,assets\cl_tools\tools_81.png,0,,317.58,0.0,1.0
24102901,cl_tools,7,test,3,assets\cl_tools\tools_50.png,0,,319.31,0.0,1.0
24102901,cl_tools,7,test,4,assets\cl_tools\tools_67.png,0,,321.04,0.0,1.0
24102901,cl_tools,7,test,5,assets\cl_tools\tools_47.png,0,,322.77,0.0,1.0
24102901,cl_tools,7,test,6,assets\cl_tools\tools_47.png,1,0.454,324.5,1.0,1.0
24102901,cl_tools,7,test,7,assets\cl_tools\tools_47.png,1,0.317,326.22,1.0,1.0
24102901,cl_tools,7,test,8,assets\cl_tools\tools_12.png,0,,327.95,0.0,1.0
24102901,cl_tools,7,test,9,assets\cl_tools\tools_19.png,0,,329.68,0.0,1.0
24102901,cl_tools,7,test,10,assets\cl_tools\tools_84.png,0,,331.41,0.0,1.0
24102901,cl_tools,7,test,11,assets\cl_tools\tools_7.png,0,,333.14,0.0,1.0
24102901,cl_tools,7,test,12,assets\cl_tools\tools_75.png,0,,334.87,0.0,1.0
24102901,cl_tools,7,test,13,assets\cl_tools\tools_13.png,0,,336.6,0.0,1.0
24102901,cl_tools,7,test,14,assets\cl_tools\tools_5.png,0,,338.33,0.0,1.0
24102901,cl_tools,7,test,15,assets\cl_tools\tools_57.png,0,,340.06,0.0,1.0
24102901,cl_tools,7,test,16,assets\cl_tools\tools_23.png,0,,341.79,0.0,1.0
24102901,cl_tools,7,test,17,assets\cl_tools\tools_85.png,0,,343.52,0.0,1.0
24102901,cl_tools,7,test,18,assets\cl_tools\tools_78.png,0,,345.25,0.0,1.0
24102901,cl_tools,7,test,19,assets\cl_tools\tools_59.png,0,,346.98,0.0,1.0
24102901,cl_tools,7,test,20,assets\cl_tools\tools_17.png,0,,348.7,0.0,1.0
24102901,cl_tools,8,test,0,assets\cl_tools\tools_55.png,0,,356.67,,
24102901,cl_tools,8,test,1,assets\cl_tools\tools_63.png,0,,358.4,0.0,1.0
24102901,cl_tools,8,test,2,assets\cl_tools\tools_14.png,0,,360.13,0.0,1.0
24102901,cl_tools,8,test,3,assets\cl_tools\tools_18.png,0,,361.86,0.0,1.0
24102901,cl_tools,8,test,4,assets\cl_tools\tools_40.png,0,,363.59,0.0,1.0
24102901,cl_tools,8,test,5,assets\cl_tools\tools_22.png,0,,365.31,0.0,1.0
24102901,cl_tools,8,test,6,assets\cl_tools\tools_22.png,1,0.454,367.04,1.0,1.0
24102901,cl_tools,8,test,7,assets\cl_tools\tools_45.png,0,,368.77,0.0,1.0
24102901,cl_tools,8,test,8,assets\cl_tools\tools_43.png,0,,370.49,0.0,1.0
24102901,cl_tools,8,test,9,assets\cl_tools\tools_90.png,0,,372.22,0.0,1.0
24102901,cl_tools,8,test,10,assets\cl_tools\tools_35.png,0,,373.95,0.0,1.0
24102901,cl_tools,8,test,11,assets\cl_tools\tools_35.png,1,0.443,375.67,1.0,1.0
24102901,cl_tools,8,test,12,assets\cl_tools\tools_46.png,0,,377.4,0.0,1.0
24102901,cl_tools,8,test,13,assets\cl_tools\tools_16.png,0,,379.13,0.0,1.0
24102901,cl_tools,8,test,14,assets\cl_tools\tools_28.png,0,,380.86,0.0,1.0
24102901,cl_tools,8,test,15,assets\cl_tools\tools_83.png,0,,382.59,0.0,1.0
24102901,cl_tools,8,test,16,assets\cl_tools\tools_49.png,0,,384.32,0.0,1.0
24102901,cl_tools,8,test,17,assets\cl_tools\tools_48.png,0,,386.05,0.0,1.0
24102901,cl_tools,8,test,18,assets\cl_tools\tools_48.png,1,0.481,387.78,1.0,1.0
24102901,cl_tools,8,test,19,assets\cl_tools\tools_10.png,0,,389.51,0.0,1.0
24102901,cl_tools,8,test,20,assets\cl_tools\tools_27.png,0,,391.23,0.0,1.0
24102901,cl_tools,9,test,0,assets\cl_tools\tools_62.png,0,,398.61,,
24102901,cl_tools,9,test,1,assets\cl_tools\tools_62.png,1,0.406,400.33,1.0,1.0
24102901,cl_tools,9,test,2,assets\cl_tools\tools_61.png,0,,402.06,0.0,1.0
24102901,cl_tools,9,test,3,assets\cl_tools\tools_66.png,0,,403.79,0.0,1.0
24102901,cl_tools,9,test,4,assets\cl_tools\tools_9.png,0,,405.52,0.0,1.0
24102901,cl_tools,9,test,5,assets\cl_tools\tools_20.png,0,,407.25,0.0,1.0
24102901,cl_tools,9,test,6,assets\cl_tools\tools_7.png,0,,408.97,0.0,1.0
24102901,cl_tools,9,test,7,assets\cl_tools\tools_64.png,0,,410.7,0.0,1.0
24102901,cl_tools,9,test,8,assets\cl_tools\tools_64.png,1,0.692,412.43,1.0,1.0
24102901,cl_tools,9,test,9,assets\cl_tools\tools_88.png,0,,414.16,0.0,1.0
24102901,cl_tools,9,test,10,assets\cl_tools\tools_88.png,1,0.614,415.89,1.0,1.0
24102901,cl_tools,9,test,11,assets\cl_tools\tools_51.png,0,,417.61,0.0,1.0
24102901,cl_tools,9,test,12,assets\cl_tools\tools_72.png,0,,419.34,0.0,1.0
24102901,cl_tools,9,test,13,assets\cl_tools\tools_79.png,0,,421.07,0.0,1.0
24102901,cl_tools,9,test,14,assets\cl_tools\tools_2.png,0,,422.8,0.0,1.0
24102901,cl_tools,9,test,15,assets\cl_tools\tools_71.png,0,,424.54,0.0,1.0
24102901,cl_tools,9,test,16,assets\cl_tools\tools_42.png,0,,426.26,0.0,1.0
24102901,cl_tools,9,test,17,assets\cl_tools\tools_75.png,0,,427.99,0.0,1.0
24102901,cl_tools,9,test,18,assets\cl_tools\tools_32.png,0,,429.72,0.0,1.0
24102901,cl_tools,9,test,19,assets\cl_tools\tools_55.png,0,,431.45,0.0,1.0
24102901,cl_tools,9,test,20,assets\cl_tools\tools_82.png,0,,433.18,0.0,1.0
24102901,cl_tools,10,test,0,assets\cl_tools\tools_39.png,0,,440.54,,
24102901,cl_tools,10,test,1,assets\cl_tools\tools_39.png,1,0.903,442.27,1.0,1.0
24102901,cl_tools,10,test,2,assets\cl_tools\tools_14.png,0,,444.0,0.0,1.0
24102901,cl_tools,10,test,3,assets\cl_tools\tools_36.png,0,,445.73,0.0,1.0
24102901,cl_tools,10,test,4,assets\cl_tools\tools_70.png,0,,447.45,0.0,1.0
24102901,cl_tools,10,test,5,assets\cl_tools\tools_31.png,0,,449.18,0.0,1.0
24102901,cl_tools,10,test,6,assets\cl_tools\tools_86.png,0,,450.91,0.0,1.0
24102901,cl_tools,10,test,7,assets\cl_tools\tools_19.png,0,,452.64,0.0,1.0
24102901,cl_tools,10,test,8,assets\cl_tools\tools_37.png,0,,454.37,0.0,1.0
24102901,cl_tools,10,test,9,assets\cl_tools\tools_50.png,0,,456.1,0.0,1.0
24102901,cl_tools,10,test,10,assets\cl_tools\tools_22.png,0,,457.83,0.0,1.0
24102901,cl_tools,10,test,11,assets\cl_tools\tools_87.png,0,,459.56,0.0,1.0
24102901,cl_tools,10,test,12,assets\cl_tools\tools_46.png,0,,461.29,0.0,1.0
24102901,cl_tools,10,test,13,assets\cl_tools\tools_24.png,0,,463.02,0.0,1.0
24102901,cl_tools,10,test,14,assets\cl_tools\tools_58.png,0,,464.75,0.0,1.0
24102901,cl_tools,10,test,15,assets\cl_tools\tools_30.png,0,,466.48,0.0,1.0
24102901,cl_tools,10,test,16,assets\cl_tools\tools_53.png,0,,468.21,0.0,1.0
24102901,cl_tools,10,test,17,assets\cl_tools\tools_69.png,0,,469.94,0.0,1.0
24102901,cl_tools,10,test,18,assets\cl_tools\tools_47.png,0,,471.66,0.0,1.0
24102901,cl_tools,10,test,19,assets\cl_tools\tools_65.png,0,,473.39,0.0,1.0
24102901,cl_tools,10,test,20,assets\cl_tools\tools_65.png,1,0.652,475.12,1.0,1.0
24102901,cl_letter,1,test,0,O,0,,646.66,,
24102901,cl_letter,1,test,1,L,0,,648.38,0.0,1.0
24102901,cl_letter,1,test,2,J,0,,650.1,0.0,1.0
24102901,cl_letter,1,test,3,Q,0,,651.83,0.0,1.0
24102901,cl_letter,1,test,4,N,0,,653.55,0.0,1.0
24102901,cl_letter,1,test,5,S,0,,655.28,0.0,1.0
24102901,cl_letter,1,test,6,Y,0,,657.0,0.0,1.0
24102901,cl_letter,1,test,7,Y,1,0.608,658.72,1.0,1.0
24102901,cl_letter,1,test,8,G,0,,660.45,0.0,1.0
24102901,cl_letter,1,test,9,X,0,,662.17,0.0,1.0
24102901,cl_letter,1,test,10,K,0,,663.9,0.0,1.0
24102901,cl_letter,1,test,11,Z,0,,665.62,0.0,1.0
24102901,cl_letter,1,test,12,Z,1,0.49,667.35,1.0,1.0
24102901,cl_letter,1,test,13,A,0,,669.07,0.0,1.0
24102901,cl_letter,1,test,14,U,0,,670.79,0.0,1.0
24102901,cl_letter,1,test,15,Y,0,,672.51,0.0,1.0
24102901,cl_letter,1,test,16,L,0,,674.24,0.0,1.0
24102901,cl_letter,1,test,17,E,0,,675.97,0.0,1.0
24102901,cl_letter,1,test,18,G,0,,677.69,0.0,1.0
24102901,cl_letter,1,test,19,G,1,0.373,679.42,1.0,1.0
24102901,cl_letter,1,test,20,G,1,0.362,681.14,1.0,1.0
24102901,cl_letter,2,test,0,T,0,,688.67,,
24102901,cl_letter,2,test,1,R,0,,690.4,0.0,1.0
24102901,cl_letter,2,test,2,V,0,,692.12,0.0,1.0
24102901,cl_letter,2,test,3,O,0,,693.85,0.0,1.0
24102901,cl_letter,2,test,4,Y,0,,695.57,0.0,1.0
24102901,cl_letter,2,test,5,Z,0,,697.3,0.0,1.0
24102901,cl_letter,2,test,6,Q,0,,699.02,0.0,1.0
24102901,cl_letter,2,test,7,Q,1,0.426,700.75,1.0,1.0
24102901,cl_letter,2,test,8,K,0,,702.47,0.0,1.0
24102901,cl_letter,2,test,9,M,0,,704.2,0.0,1.0
24102901,cl_letter,2,test,10,S,0,,705.92,0.0,1.0
24102901,cl_letter,2,test,11,C,0,,707.65,0.0,1.0
24102901,cl_letter,2,test,12,E,0,,709.37,0.0,1.0
24102901,cl_letter,2,test,13,J,0,,711.1,0.0,1.0
24102901,cl_letter,2,test,14,Z,0,,712.82,0.0,1.0
24102901,cl_letter,2,test,15,Y,0,,714.55,0.0,1.0
24102901,cl_letter,2,test,16,A,0,,716.28,0.0,1.0
24102901,cl_letter,2,test,17,L,0,,718.0,0.0,1.0
24102901,cl_letter,2,test,18,M,0,,719.72,0.0,1.0
24102901,cl_letter,2,test,19,I,0,,721.45,0.0,1.0
24102901,cl_letter,2,test,20,I,1,0.531,723.17,1.0,1.0
24102901,cl_letter,3,test,0,S,0,,732.75,,
24102901,cl_letter,3,test,1,Q,0,,734.48,0.0,1.0
24102901,cl_letter,3,test,2,J,0,,736.2,0.0,1.0
24102901,cl_letter,3,test,3,J,1,0.666,737.92,1.0,1.0
24102901,cl_letter,3,test,4,W,0,,739.65,0.0,1.0
24102901,cl_letter,3,test,5,D,0,,741.37,0.0,1.0
24102901,cl_letter,3,test,6,Y,0,,743.1,0.0,1.0
24102901,cl_letter,3,test,7,O,0,,744.82,0.0,1.0
24102901,cl_letter,3,test,8,I,0,,746.55,0.0,1.0
24102901,cl_letter,3,test,9,E,0,,748.27,0.0,1.0
24102901,cl_letter,3,test,10,E,1,0.41,749.99,1.0,1.0
24102901,cl_letter,3,test,11,E,1,0.369,751.72,1.0,1.0
24102901,cl_letter,3,test,12,K,0,,753.44,0.0,1.0
24102901,cl_letter,3,test,13,Z,0,,755.17,0.0,1.0
24102901,cl_letter,3,test,14,F,0,,756.89,0.0,1.0
24102901,cl_letter,3,test,15,A,0,,758.62,0.0,1.0
24102901,cl_letter,3,test,16,M,0,,760.35,0.0,1.0
24102901,cl_letter,3,test,17,M,1,0.584,762.07,1.0,1.0
24102901,cl_letter,3,test,18,M,1,0.367,763.79,1.0,1.0
24102901,cl_letter,3,test,19,N,0,,765.52,0.0,1.0
24102901,cl_letter,3,test,20,P,0,,767.24,0.0,1.0
24102901,cl_letter,4,test,0,I,0,,776.74,,
24102901,cl_letter,4,test,1,V,0,,778.47,0.0,1.0
24102901,cl_letter,4,test,2,V,1,0.583,780.19,1.0,1.0
24102901,cl_letter,4,test,3,D,0,,781.91,0.0,1.0
24102901,cl_letter,4,test,4,Z,0,,783.64,0.0,1.0
24102901,cl_letter,4,test,5,F,0,,785.37,0.0,1.0
24102901,cl_letter,4,test,6,H,0,,787.09,0.0,1.0
24102901,cl_letter,4,test,7,G,0,,788.81,0.0,1.0
24102901,cl_letter,4,test,8,G,1,0.438,790.53,1.0,1.0
24102901,cl_letter,4,test,9,E,0,,792.26,0.0,1.0
24102901,cl_letter,4,test,10,E,1,0.402,793.98,1.0,1.0
24102901,cl_letter,4,test,11,C,0,,795.7,0.0,1.0
24102901,cl_letter,4,test,12,M,0,,797.43,0.0,1.0
24102901,cl_letter,4,test,13,M,1,0.411,799.15,1.0,1.0
24102901,cl_letter,4,test,14,Z,0,,800.88,0.0,1.0
24102901,cl_letter,4,test,15,H,0,,802.6,0.0,1.0
24102901,cl_letter,4,test,16,T,0,,804.32,0.0,1.0
24102901,cl_letter,4,test,17,W,0,,806.05,0.0,1.0
24102901,cl_letter,4,test,18,K,0,,807.78,0.0,1.0
24102901,cl_letter,4,test,19,K,1,0.368,809.5,1.0,1.0
24102901,cl_letter,4,test,20,L,0,,811.23,0.0,1.0
24102901,cl_letter,5,test,0,U,0,,820.74,,
24102901,cl_letter,5,test,1,C,0,,822.46,0.0,1.0
24102901,cl_letter,5,test,2,F,0,,824.19,0.0,1.0
24102901,cl_letter,5,test,3,N,0,,825.91,0.0,1.0
24102901,cl_letter,5,test,4,W,0,,827.64,0.0,1.0
24102901,cl_letter,5,test,5,Q,0,,829.36,0.0,1.0
24102901,cl_letter,5,test,6,Q,1,0.51,831.09,1.0,1.0
24102901,cl_letter,5,test,7,D,0,,832.81,0.0,1.0
24102901,cl_letter,5,test,8,Y,0,,834.53,0.0,1.0
24102901,cl_letter,5,test,9,T,0,,836.26,0.0,1.0
24102901,cl_letter,5,test,10,N,0,,837.98,0.0,1.0
24102901,cl_letter,5,test,11,I,0,,839.71,0.0,1.0
24102901,cl_letter,5,test,12,U,0,,841.43,0.0,1.0
24102901,cl_letter,5,test,13,B,0,,843.16,0.0,1.0
24102901,cl_letter,5,test,14,V,0,,844.88,0.0,1.0
24102901,cl_letter,5,test,15,E,0,,846.6,0.0,1.0
24102901,cl_letter,5,test,16,H,0,,848.33,0.0,1.0
24102901,cl_letter,5,test,17,S,0,,850.05,0.0,1.0
24102901,cl_letter,5,test,18,J,0,,851.78,0.0,1.0
24102901,cl_letter,5,test,19,W,0,,853.5,0.0,1.0
24102901,cl_letter,5,test,20,O,0,,855.22,0.0,1.0
24102901,cl_letter,6,test,0,X,0,,862.75,,
24102901,cl_letter,6,test,1,M,0,,864.48,0.0,1.0
24102901,cl_letter,6,test,2,Z,0,,866.2,0.0,1.0
24102901,cl_letter,6,test,3,T,0,,867.93,0.0,1.0
24102901,cl_letter,6,test,4,U,0,,869.65,0.0,1.0
24102901,cl_letter,6,test,5,Y,0,,871.38,0.0,1.0
24102901,cl_letter,6,test,6,W,0,,873.1,0.0,1.0
24102901,cl_letter,6,test,7,W,1,0.795,874.83,1.0,1.0
24102901,cl_letter,6,test,8,K,0,,876.55,0.0,1.0
24102901,cl_letter,6,test,9,B,0,,878.28,0.0,1.0
24102901,cl_letter,6,test,10,B,1,0.501,880.0,1.0,1.0
24102901,cl_letter,6,test,11,V,0,,881.72,0.0,1.0
24102901,cl_letter,6,test,12,L,0,,883.45,0.0,1.0
24102901,cl_letter,6,test,13,P,0,,885.17,0.0,1.0
24102901,cl_letter,6,test,14,S,0,,886.89,0.0,1.0
24102901,cl_letter,6,test,15,J,0,,888.62,0.0,1.0
24102901,cl_letter,6,test,16,J,1,0.548,890.34,1.0,1.0
24102901,cl_letter,6,test,17,Q,0,,892.07,0.0,1.0
24102901,cl_letter,6,test,18,Z,0,,893.79,0.0,1.0
24102901,cl_letter,6,test,19,B,0,,895.51,0.0,1.0
24102901,cl_letter,6,test,20,W,0,,897.24,0.0,1.0
24102901,cl_letter,7,test,0,K,0,,904.82,,
24102901,cl_letter,7,test,1,N,0,,906.55,0.0,1.0
24102901,cl_letter,7,test,2,F,0,,908.27,0.0,1.0
24102901,cl_letter,7,test,3,M,0,,910.0,0.0,1.0
24102901,cl_letter,7,test,4,B,0,,911.72,0.0,1.0
24102901,cl_letter,7,test,5,A,0,,913.45,0.0,1.0
24102901,cl_letter,7,test,6,L,0,,915.17,0.0,1.0
24102901,cl_letter,7,test,7,L,1,0.839,916.89,1.0,1.0
24102901,cl_letter,7,test,8,R,0,,918.62,0.0,1.0
24102901,cl_letter,7,test,9,X,0,,920.34,0.0,1.0
24102901,cl_letter,7,test,10,T,0,,922.07,0.0,1.0
24102901,cl_letter,7,test,11,Y,0,,923.79,0.0,1.0
24102901,cl_letter,7,test,12,N,0,,925.51,0.0,1.0
24102901,cl_letter,7,test,13,G,0,,927.24,0.0,1.0
24102901,cl_letter,7,test,14,G,1,0.845,928.96,1.0,1.0
24102901,cl_letter,7,test,15,C,0,,930.69,0.0,1.0
24102901,cl_letter,7,test,16,O,0,,932.41,0.0,1.0
24102901,cl_letter,7,test,17,F,0,,934.13,0.0,1.0
24102901,cl_letter,7,test,18,U,0,,935.86,0.0,1.0
24102901,cl_letter,7,test,19,U,1,0.349,937.58,1.0,1.0
24102901,cl_letter,7,test,20,Q,0,,939.31,0.0,1.0
24102901,cl_letter,8,test,0,N,0,,946.86,,
24102901,cl_letter,8,test,1,M,0,,948.59,0.0,1.0
24102901,cl_letter,8,test,2,I,0,,950.31,0.0,1.0
24102901,cl_letter,8,test,3,H,0,,952.04,0.0,1.0
24102901,cl_letter,8,test,4,D,0,,953.76,0.0,1.0
24102901,cl_letter,8,test,5,W,0,,955.49,0.0,1.0
24102901,cl_letter,8,test,6,W,1,0.541,957.21,1.0,1.0
24102901,cl_letter,8,test,7,P,0,,958.93,0.0,1.0
24102901,cl_letter,8,test,8,V,0,,960.65,0.0,1.0
24102901,cl_letter,8,test,9,R,0,,962.38,0.0,1.0
24102901,cl_letter,8,test,10,A,0,,964.1,0.0,1.0
24102901,cl_letter,8,test,11,E,0,,965.83,0.0,1.0
24102901,cl_letter,8,test,12,Y,0,,967.55,0.0,1.0
24102901,cl_letter,8,test,13,T,0,,969.28,0.0,1.0
24102901,cl_letter,8,test,14,W,0,,971.0,0.0,1.0
24102901,cl_letter,8,test,15,Z,0,,972.72,0.0,1.0
24102901,cl_letter,8,test,16,O,0,,974.45,0.0,1.0
24102901,cl_letter,8,test,17,R,0,,976.17,0.0,1.0
24102901,cl_letter,8,test,18,K,0,,977.9,0.0,1.0
24102901,cl_letter,8,test,19,K,1,0.757,979.62,1.0,1.0
24102901,cl_letter,8,test,20,Y,0,,981.34,0.0,1.0
24102901,cl_letter,9,test,0,Q,0,,989.56,,
24102901,cl_letter,9,test,1,L,0,,991.28,0.0,1.0
24102901,cl_letter,9,test,2,F,0,,993.01,0.0,1.0
24102901,cl_letter,9,test,3,W,0,,994.74,0.0,1.0
24102901,cl_letter,9,test,4,B,0,,996.46,0.0,1.0
24102901,cl_letter,9,test,5,T,0,,998.19,0.0,1.0
24102901,cl_letter,9,test,6,V,0,,999.91,0.0,1.0
24102901,cl_letter,9,test,7,C,0,,1001.64,0.0,1.0
24102901,cl_letter,9,test,8,R,0,,1003.36,0.0,1.0
24102901,cl_letter,9,test,9,N,0,,1005.08,0.0,1.0
24102901,cl_letter,9,test,10,L,0,,1006.81,0.0,1.0
24102901,cl_letter,9,test,11,B,0,,1008.53,0.0,1.0
24102901,cl_letter,9,test,12,M,0,,1010.26,0.0,1.0
24102901,cl_letter,9,test,13,W,0,,1011.98,0.0,1.0
24102901,cl_letter,9,test,14,V,0,,1013.7,0.0,1.0
24102901,cl_letter,9,test,15,O,0,,1015.43,0.0,1.0
24102901,cl_letter,9,test,16,T,0,,1017.15,0.0,1.0
24102901,cl_letter,9,test,17,E,0,,1018.87,0.0,1.0
24102901,cl_letter,9,test,18,Y,0,,1020.6,0.0,1.0
24102901,cl_letter,9,test,19,G,0,,1022.32,0.0,1.0
24102901,cl_letter,9,test,20,A,0,,1024.05,0.0,1.0
24102901,cl_letter,10,test,0,V,0,,1032.74,,
24102901,cl_letter,10,test,1,J,0,,1034.47,0.0,1.0
24102901,cl_letter,10,test,2,Z,0,,1036.19,0.0,1.0
24102901,cl_letter,10,test,3,L,0,,1037.92,0.0,1.0
24102901,cl_letter,10,test,4,L,1,0.506,1039.64,1.0,1.0
24102901,cl_letter,10,test,5,G,0,,1041.37,0.0,1.0
24102901,cl_letter,10,test,6,C,0,,1043.09,0.0,1.0
24102901,cl_letter,10,test,7,D,0,,1044.82,0.0,1.0
24102901,cl_letter,10,test,8,I,0,,1046.54,0.0,1.0
24102901,cl_letter,10,test,9,I,1,0.502,1048.26,1.0,1.0
24102901,cl_letter,10,test,10,I,1,0.5,1049.98,1.0,1.0
24102901,cl_letter,10,test,11,A,0,,1051.71,0.0,1.0
24102901,cl_letter,10,test,12,N,0,,1053.43,0.0,1.0
24102901,cl_letter,10,test,13,Z,0,,1055.16,0.0,1.0
24102901,cl_letter,10,test,14,C,0,,1056.88,0.0,1.0
24102901,cl_letter,10,test,15,C,1,0.555,1058.6,1.0,1.0
24102901,cl_letter,10,test,16,K,0,,1060.33,0.0,1.0
24102901,cl_letter,10,test,17,L,0,,1062.05,0.0,1.0
24102901,cl_letter,10,test,18,S,0,,1063.78,0.0,1.0
24102901,cl_letter,10,test,19,J,0,,1065.5,0.0,1.0
24102901,cl_letter,10,test,20,Y,0,,1067.22,0.0,1.0
24102901,cl_foods,1,test,0,assets\cl_foods\foods_29.png,0,,1098.85,,
24102901,cl_foods,1,test,1,assets\cl_foods\foods_29.png,1,0.557,1100.58,1.0,1.0
24102901,cl_foods,1,test,2,assets\cl_foods\foods_71.png,0,,1102.32,0.0,1.0
24102901,cl_foods,1,test,3,assets\cl_foods\foods_77.png,0,,1104.06,0.0,1.0
24102901,cl_foods,1,test,4,assets\cl_foods\foods_21.png,0,,1105.8,0.0,1.0
24102901,cl_foods,1,test,5,assets\cl_foods\foods_59.png,0,,1107.54,0.0,1.0
24102901,cl_foods,1,test,6,assets\cl_foods\foods_25.png,0,,1109.35,0.0,1.0
24102901,cl_foods,1,test,7,assets\cl_foods\foods_13.png,0,,1111.08,0.0,1.0
24102901,cl_foods,1,test,8,assets\cl_foods\foods_74.png,0,,1112.82,0.0,1.0
24102901,cl_foods,1,test,9,assets\cl_foods\foods_89.png,0,,1114.55,0.0,1.0
24102901,cl_foods,1,test,10,assets\cl_foods\foods_76.png,0,,1116.29,0.0,1.0
24102901,cl_foods,1,test,11,assets\cl_foods\foods_83.png,0,,1118.03,0.0,1.0
24102901,cl_foods,1,test,12,assets\cl_foods\foods_80.png,0,,1119.76,0.0,1.0
24102901,cl_foods,1,test,13,assets\cl_foods\foods_1.png,0,,1121.5,0.0,1.0
24102901,cl_foods,1,test,14,assets\cl_foods\foods_7.png,0,,1123.24,0.0,1.0
24102901,cl_foods,1,test,15,assets\cl_foods\foods_48.png,0,,1124.97,0.0,1.0
24102901,cl_foods,1,test,16,assets\cl_foods\foods_3.png,0,,1126.71,0.0,1.0
24102901,cl_foods,1,test,17,assets\cl_foods\foods_57.png,0,,1128.45,0.0,1.0
24102901,cl_foods,1,test,18,assets\cl_foods\foods_2.png,0,,1130.18,0.0,1.0
24102901,cl_foods,1,test,19,assets\cl_foods\foods_37.png,0,,1131.92,0.0,1.0
24102901,cl_foods,1,test,20,assets\cl_foods\foods_22.png,0,,1133.66,0.0,1.0
24102901,cl_foods,2,test,0,assets\cl_foods\foods_90.png,0,,1141.09,,
24102901,cl_foods,2,test,1,assets\cl_foods\foods_49.png,0,,1142.82,0.0,1.0
24102901,cl_foods,2,test,2,assets\cl_foods\foods_50.png,0,,1144.56,0.0,1.0
24102901,cl_foods,2,test,3,assets\cl_foods\foods_44.png,0,,1146.3,0.0,1.0
24102901,cl_foods,2,test,4,assets\cl_foods\foods_64.png,0,,1148.04,0.0,1.0
24102901,cl_foods,2,test,5,assets\cl_foods\foods_45.png,0,,1149.77,0.0,1.0
24102901,cl_foods,2,test,6,assets\cl_foods\foods_41.png,0,,1151.58,0.0,1.0
24102901,cl_foods,2,test,7,assets\cl_foods\foods_41.png,1,0.519,1153.35,1.0,1.0
24102901,cl_foods,2,test,8,assets\cl_foods\foods_27.png,0,,1155.09,0.0,1.0
24102901,cl_foods,2,test,9,assets\cl_foods\foods_5.png,0,,1156.82,0.0,1.0
24102901,cl_foods,2,test,10,assets\cl_foods\foods_5.png,1,0.503,1158.55,1.0,1.0
24102901,cl_foods,2,test,11,assets\cl_foods\foods_53.png,0,,1160.29,0.0,1.0
24102901,cl_foods,2,test,12,assets\cl_foods\foods_34.png,0,,1162.02,0.0,1.0
24102901,cl_foods,2,test,13,assets\cl_foods\foods_39.png,0,,1163.76,0.0,1.0
24102901,cl_foods,2,test,14,assets\cl_foods\foods_86.png,0,,1165.5,0.0,1.0
24102901,cl_foods,2,test,15,assets\cl_foods\foods_85.png,0,,1167.29,0.0,1.0
24102901,cl_foods,2,test,16,assets\cl_foods\foods_29.png,0,,1169.02,0.0,1.0
24102901,cl_foods,2,test,17,assets\cl_foods\foods_23.png,0,,1170.76,0.0,1.0
24102901,cl_foods,2,test,18,assets\cl_foods\foods_4.png,0,,1172.49,0.0,1.0
24102901,cl_foods,2,test,19,assets\cl_foods\foods_70.png,0,,1174.23,0.0,1.0
24102901,cl_foods,2,test,20,assets\cl_foods\foods_70.png,1,0.633,1175.96,1.0,1.0
24102901,cl_foods,3,test,0,assets\cl_foods\foods_58.png,0,,1183.6,,
24102901,cl_foods,3,test,1,assets\cl_foods\foods_11.png,0,,1185.34,0.0,1.0
24102901,cl_foods,3,test,2,assets\cl_foods\foods_11.png,1,0.533,1187.07,1.0,1.0
24102901,cl_foods,3,test,3,assets\cl_foods\foods_72.png,0,,1188.8,0.0,1.0
24102901,cl_foods,3,test,4,assets\cl_foods\foods_9.png,0,,1190.54,0.0,1.0
24102901,cl_foods,3,test,5,assets\cl_foods\foods_73.png,0,,1192.27,0.0,1.0
24102901,cl_foods,3,test,6,assets\cl_foods\foods_31.png,0,,1194.01,0.0,1.0
24102901,cl_foods,3,test,7,assets\cl_foods\foods_15.png,0,,1195.75,0.0,1.0
24102901,cl_foods,3,test,8,assets\cl_foods\foods_21.png,0,,1197.48,0.0,1.0
24102901,cl_foods,3,test,9,assets\cl_foods\foods_82.png,0,,1199.21,0.0,1.0
24102901,cl_foods,3,test,10,assets\cl_foods\foods_71.png,0,,1200.94,0.0,1.0
24102901,cl_foods,3,test,11,assets\cl_foods\foods_28.png,0,,1202.68,0.0,1.0
24102901,cl_foods,3,test,12,assets\cl_foods\foods_80.png,0,,1204.4,0.0,1.0
24102901,cl_foods,3,test,13,assets\cl_foods\foods_42.png,0,,1206.14,0.0,1.0
24102901,cl_foods,3,test,14,assets\cl_foods\foods_74.png,0,,1207.87,0.0,1.0
24102901,cl_foods,3,test,15,assets\cl_foods\foods_83.png,0,,1209.6,0.0,1.0
24102901,cl_foods,3,test,16,assets\cl_foods\foods_17.png,0,,1211.34,0.0,1.0
24102901,cl_foods,3,test,17,assets\cl_foods\foods_3.png,0,,1213.07,0.0,1.0
24102901,cl_foods,3,test,18,assets\cl_foods\foods_18.png,0,,1214.81,0.0,1.0
24102901,cl_foods,3,test,19,assets\cl_foods\foods_46.png,0,,1216.54,0.0,1.0
24102901,cl_foods,3,test,20,assets\cl_foods\foods_69.png,0,,1218.28,0.0,1.0
24102901,cl_foods,4,test,0,assets\cl_foods\foods_67.png,0,,1227.22,,
24102901,cl_foods,4,test,1,assets\cl_foods\foods_27.png,0,,1228.95,0.0,1.0
24102901,cl_foods,4,test,2,assets\cl_foods\foods_87.png,0,,1230.69,0.0,1.0
24102901,cl_foods,4,test,3,assets\cl_foods\foods_43.png,0,,1232.43,0.0,1.0
24102901,cl_foods,4,test,4,assets\cl_foods\foods_22.png,0,,1234.16,0.0,1.0
24102901,cl_foods,4,test,5,assets\cl_foods\foods_22.png,1,0.599,1235.89,1.0,1.0
24102901,cl_foods,4,test,6,assets\cl_foods\foods_5.png,0,,1237.61,0.0,1.0
24102901,cl_foods,4,test,7,assets\cl_foods\foods_47.png,0,,1239.35,0.0,1.0
24102901,cl_foods,4,test,8,assets\cl_foods\foods_16.png,0,,1241.09,0.0,1.0
24102901,cl_foods,4,test,9,assets\cl_foods\foods_7.png,0,,1242.81,0.0,1.0
24102901,cl_foods,4,test,10,assets\cl_foods\foods_68.png,0,,1244.55,0.0,1.0
24102901,cl_foods,4,test,11,assets\cl_foods\foods_36.png,0,,1246.28,0.0,1.0
24102901,cl_foods,4,test,12,assets\cl_foods\foods_40.png,0,,1248.02,0.0,1.0
24102901,cl_foods,4,test,13,assets\cl_foods\foods_39.png,0,,1249.75,0.0,1.0
24102901,cl_foods,4,test,14,assets\cl_foods\foods_29.png,0,,1251.48,0.0,1.0
24102901,cl_foods,4,test,15,assets\cl_foods\foods_44.png,0,,1253.21,0.0,1.0
24102901,cl_foods,4,test,16,assets\cl_foods\foods_49.png,0,,1254.94,0.0,1.0
24102901,cl_foods,4,test,17,assets\cl_foods\foods_56.png,0,,1256.67,0.0,1.0
24102901,cl_foods,4,test,18,assets\cl_foods\foods_4.png,0,,1258.4,0.0,1.0
24102901,cl_foods,4,test,19,assets\cl_foods\foods_79.png,0,,1260.14,0.0,1.0
24102901,cl_foods,4,test,20,assets\cl_foods\foods_81.png,0,,1261.88,0.0,1.0
24102901,cl_foods,5,test,0,assets\cl_foods\foods_53.png,0,,1271.26,,
24102901,cl_foods,5,test,1,assets\cl_foods\foods_41.png,0,,1273.06,0.0,1.0
24102901,cl_foods,5,test,2,assets\cl_foods\foods_30.png,0,,1274.8,0.0,1.0
24102901,cl_foods,5,test,3,assets\cl_foods\foods_28.png,0,,1276.53,0.0,1.0
24102901,cl_foods,5,test,4,assets\cl_foods\foods_21.png,0,,1278.26,0.0,1.0
24102901,cl_foods,5,test,5,assets\cl_foods\foods_61.png,0,,1279.99,0.0,1.0
24102901,cl_foods,5,test,6,assets\cl_foods\foods_12.png,0,,1281.73,0.0,1.0
24102901,cl_foods,5,test,7,assets\cl_foods\foods_33.png,0,,1283.46,0.0,1.0
24102901,cl_foods,5,test,8,assets\cl_foods\foods_33.png,1,0.605,1285.19,1.0,1.0
24102901,cl_foods,5,test,9,assets\cl_foods\foods_77.png,0,,1286.92,0.0,1.0
24102901,cl_foods,5,test,10,assets\cl_foods\foods_65.png,0,,1288.66,0.0,1.0
24102901,cl_foods,5,test,11,assets\cl_foods\foods_48.png,0,,1290.39,0.0,1.0
24102901,cl_foods,5,test,12,assets\cl_foods\foods_2.png,0,,1292.12,0.0,1.0
24102901,cl_foods,5,test,13,assets\cl_foods\foods_6.png,0,,1293.85,0.0,1.0
24102901,cl_foods,5,test,14,assets\cl_foods\foods_6.png,1,0.478,1295.58,1.0,1.0
24102901,cl_foods,5,test,15,assets\cl_foods\foods_62.png,0,,1297.3,0.0,1.0
24102901,cl_foods,5,test,16,assets\cl_foods\foods_46.png,0,,1299.03,0.0,1.0
24102901,cl_foods,5,test,17,assets\cl_foods\foods_54.png,0,,1300.77,0.0,1.0
24102901,cl_foods,5,test,18,assets\cl_foods\foods_72.png,0,,1302.5,0.0,1.0
24102901,cl_foods,5,test,19,assets\cl_foods\foods_31.png,0,,1304.23,0.0,1.0
24102901,cl_foods,5,test,20,assets\cl_foods\foods_31.png,1,0.684,1305.96,1.0,1.0
24102901,cl_foods,6,test,0,assets\cl_foods\foods_16.png,0,,1311.36,,
24102901,cl_foods,6,test,1,assets\cl_foods\foods_59.png,0,,1313.09,0.0,1.0
24102901,cl_foods,6,test,2,assets\cl_foods\foods_7.png,0,,1314.82,0.0,1.0
24102901,cl_foods,6,test,3,assets\cl_foods\foods_78.png,0,,1316.55,0.0,1.0
24102901,cl_foods,6,test,4,assets\cl_foods\foods_64.png,0,,1318.28,0.0,1.0
24102901,cl_foods,6,test,5,assets\cl_foods\foods_8.png,0,,1320.02,0.0,1.0
24102901,cl_foods,6,test,6,assets\cl_foods\foods_75.png,0,,1321.75,0.0,1.0
24102901,cl_foods,6,test,7,assets\cl_foods\foods_63.png,0,,1323.49,0.0,1.0
24102901,cl_foods,6,test,8,assets\cl_foods\foods_89.png,0,,1325.22,0.0,1.0
24102901,cl_foods,6,test,9,assets\cl_foods\foods_87.png,0,,1326.95,0.0,1.0
24102901,cl_foods,6,test,10,assets\cl_foods\foods_39.png,0,,1328.68,0.0,1.0
24102901,cl_foods,6,test,11,assets\cl_foods\foods_88.png,0,,1330.42,0.0,1.0
24102901,cl_foods,6,test,12,assets\cl_foods\foods_19.png,0,,1332.15,0.0,1.0
24102901,cl_foods,6,test,13,assets\cl_foods\foods_18.png,0,,1333.88,0.0,1.0
24102901,cl_foods,6,test,14,assets\cl_foods\foods_69.png,0,,1335.61,0.0,1.0
24102901,cl_foods,6,test,15,assets\cl_foods\foods_70.png,0,,1337.34,0.0,1.0
24102901,cl_foods,6,test,16,assets\cl_foods\foods_86.png,0,,1339.07,0.0,1.0
24102901,cl_foods,6,test,17,assets\cl_foods\foods_3.png,0,,1340.81,0.0,1.0
24102901,cl_foods,6,test,18,assets\cl_foods\foods_17.png,0,,1342.54,0.0,1.0
24102901,cl_foods,6,test,19,assets\cl_foods\foods_90.png,0,,1344.27,0.0,1.0
24102901,cl_foods,6,test,20,assets\cl_foods\foods_42.png,0,,1346.0,0.0,1.0
24102901,cl_foods,7,test,0,assets\cl_foods\foods_22.png,0,,1353.46,,
24102901,cl_foods,7,test,1,assets\cl_foods\foods_51.png,0,,1355.2,0.0,1.0
24102901,cl_foods,7,test,2,assets\cl_foods\foods_36.png,0,,1356.92,0.0,1.0
24102901,cl_foods,7,test,3,assets\cl_foods\foods_36.png,1,0.601,1358.65,1.0,1.0
24102901,cl_foods,7,test,4,assets\cl_foods\foods_36.png,1,0.426,1360.38,1.0,1.0
24102901,cl_foods,7,test,5,assets\cl_foods\foods_77.png,0,,1362.11,0.0,1.0
24102901,cl_foods,7,test,6,assets\cl_foods\foods_53.png,0,,1363.84,0.0,1.0
24102901,cl_foods,7,test,7,assets\cl_foods\foods_28.png,0,,1365.57,0.0,1.0
24102901,cl_foods,7,test,8,assets\cl_foods\foods_74.png,0,,1367.29,0.0,1.0
24102901,cl_foods,7,test,9,assets\cl_foods\foods_43.png,0,,1369.02,0.0,1.0
24102901,cl_foods,7,test,10,assets\cl_foods\foods_6.png,0,,1370.75,0.0,1.0
24102901,cl_foods,7,test,11,assets\cl_foods\foods_10.png,0,,1372.49,0.0,1.0
24102901,cl_foods,7,test,12,assets\cl_foods\foods_60.png,0,,1374.22,0.0,1.0
24102901,cl_foods,7,test,13,assets\cl_foods\foods_23.png,0,,1375.96,0.0,1.0
24102901,cl_foods,7,test,14,assets\cl_foods\foods_23.png,0,,1377.69,1.0,0.0
24102901,cl_foods,7,test,15,assets\cl_foods\foods_44.png,1,0.105,1379.42,0.0,0.0
24102901,cl_foods,7,test,16,assets\cl_foods\foods_52.png,0,,1381.16,0.0,1.0
24102901,cl_foods,7,test,17,assets\cl_foods\foods_9.png,0,,1382.89,0.0,1.0
24102901,cl_foods,7,test,18,assets\cl_foods\foods_58.png,0,,1384.62,0.0,1.0
24102901,cl_foods,7,test,19,assets\cl_foods\foods_5.png,0,,1386.34,0.0,1.0
24102901,cl_foods,7,test,20,assets\cl_foods\foods_76.png,0,,1388.07,0.0,1.0
24102901,cl_foods,8,test,0,assets\cl_foods\foods_34.png,0,,1395.55,,
24102901,cl_foods,8,test,1,assets\cl_foods\foods_34.png,1,0.513,1397.28,1.0,1.0
24102901,cl_foods,8,test,2,assets\cl_foods\foods_2.png,0,,1399.01,0.0,1.0
24102901,cl_foods,8,test,3,assets\cl_foods\foods_83.png,0,,1400.74,0.0,1.0
24102901,cl_foods,8,test,4,assets\cl_foods\foods_62.png,0,,1402.47,0.0,1.0
24102901,cl_foods,8,test,5,assets\cl_foods\foods_45.png,0,,1404.2,0.0,1.0
24102901,cl_foods,8,test,6,assets\cl_foods\foods_47.png,0,,1405.93,0.0,1.0
24102901,cl_foods,8,test,7,assets\cl_foods\foods_7.png,0,,1407.66,0.0,1.0
24102901,cl_foods,8,test,8,assets\cl_foods\foods_75.png,0,,1409.39,0.0,1.0
24102901,cl_foods,8,test,9,assets\cl_foods\foods_37.png,0,,1411.12,0.0,1.0
24102901,cl_foods,8,test,10,assets\cl_foods\foods_32.png,0,,1412.86,0.0,1.0
24102901,cl_foods,8,test,11,assets\cl_foods\foods_48.png,0,,1414.59,0.0,1.0
24102901,cl_foods,8,test,12,assets\cl_foods\foods_82.png,0,,1416.32,0.0,1.0
24102901,cl_foods,8,test,13,assets\cl_foods\foods_18.png,0,,1418.05,0.0,1.0
24102901,cl_foods,8,test,14,assets\cl_foods\foods_18.png,1,0.427,1419.78,1.0,1.0
24102901,cl_foods,8,test,15,assets\cl_foods\foods_84.png,0,,1421.52,0.0,1.0
24102901,cl_foods,8,test,16,assets\cl_foods\foods_38.png,0,,1423.25,0.0,1.0
24102901,cl_foods,8,test,17,assets\cl_foods\foods_4.png,0,,1424.98,0.0,1.0
24102901,cl_foods,8,test,18,assets\cl_foods\foods_50.png,0,,1426.71,0.0,1.0
24102901,cl_foods,8,test,19,assets\cl_foods\foods_57.png,0,,1428.44,0.0,1.0
24102901,cl_foods,8,test,20,assets\cl_foods\foods_89.png,0,,1430.17,0.0,1.0
24102901,cl_foods,9,test,0,assets\cl_foods\foods_33.png,0,,1437.7,,
24102901,cl_foods,9,test,1,assets\cl_foods\foods_15.png,0,,1439.43,0.0,1.0
24102901,cl_foods,9,test,2,assets\cl_foods\foods_53.png,0,,1441.16,0.0,1.0
24102901,cl_foods,9,test,3,assets\cl_foods\foods_22.png,0,,1442.89,0.0,1.0
24102901,cl_foods,9,test,4,assets\cl_foods\foods_6.png,0,,1444.62,0.0,1.0
24102901,cl_foods,9,test,5,assets\cl_foods\foods_54.png,0,,1446.35,0.0,1.0
24102901,cl_foods,9,test,6,assets\cl_foods\foods_26.png,0,,1448.24,0.0,1.0
24102901,cl_foods,9,test,7,assets\cl_foods\foods_43.png,0,,1449.97,0.0,1.0
24102901,cl_foods,9,test,8,assets\cl_foods\foods_19.png,0,,1451.7,0.0,1.0
24102901,cl_foods,9,test,9,assets\cl_foods\foods_87.png,0,,1453.43,0.0,1.0
24102901,cl_foods,9,test,10,assets\cl_foods\foods_81.png,0,,1455.16,0.0,1.0
24102901,cl_foods,9,test,11,assets\cl_foods\foods_36.png,0,,1456.89,0.0,1.0
24102901,cl_foods,9,test,12,assets\cl_foods\foods_40.png,0,,1458.62,0.0,1.0
24102901,cl_foods,9,test,13,assets\cl_foods\foods_24.png,0,,1460.36,0.0,1.0
24102901,cl_foods,9,test,14,assets\cl_foods\foods_23.png,0,,1462.09,0.0,1.0
24102901,cl_foods,9,test,15,assets\cl_foods\foods_13.png,0,,1463.82,0.0,1.0
24102901,cl_foods,9,test,16,assets\cl_foods\foods_46.png,0,,1465.55,0.0,1.0
24102901,cl_foods,9,test,17,assets\cl_foods\foods_1.png,0,,1467.28,0.0,1.0
24102901,cl_foods,9,test,18,assets\cl_foods\foods_17.png,0,,1469.01,0.0,1.0
24102901,cl_foods,9,test,19,assets\cl_foods\foods_88.png,0,,1470.74,0.0,1.0
24102901,cl_foods,9,test,20,assets\cl_foods\foods_44.png,0,,1472.46,0.0,1.0
24102901,cl_foods,10,test,0,assets\cl_foods\foods_86.png,0,,1483.27,,
24102901,cl_foods,10,test,1,assets\cl_foods\foods_66.png,0,,1485.01,0.0,1.0
24102901,cl_foods,10,test,2,assets\cl_foods\foods_20.png,0,,1486.75,0.0,1.0
24102901,cl_foods,10,test,3,assets\cl_foods\foods_7.png,0,,1488.47,0.0,1.0
24102901,cl_foods,10,test,4,assets\cl_foods\foods_7.png,1,0.54,1490.2,1.0,1.0
24102901,cl_foods,10,test,5,assets\cl_foods\foods_30.png,0,,1491.93,0.0,1.0
24102901,cl_foods,10,test,6,assets\cl_foods\foods_48.png,0,,1493.66,0.0,1.0
24102901,cl_foods,10,test,7,assets\cl_foods\foods_37.png,0,,1495.39,0.0,1.0
24102901,cl_foods,10,test,8,assets\cl_foods\foods_29.png,0,,1497.12,0.0,1.0
24102901,cl_foods,10,test,9,assets\cl_foods\foods_45.png,0,,1498.85,0.0,1.0
24102901,cl_foods,10,test,10,assets\cl_foods\foods_45.png,1,0.417,1500.58,1.0,1.0
24102901,cl_foods,10,test,11,assets\cl_foods\foods_62.png,0,,1502.31,0.0,1.0
24102901,cl_foods,10,test,12,assets\cl_foods\foods_12.png,0,,1504.04,0.0,1.0
24102901,cl_foods,10,test,13,assets\cl_foods\foods_34.png,0,,1505.77,0.0,1.0
24102901,cl_foods,10,test,14,assets\cl_foods\foods_49.png,0,,1507.5,0.0,1.0
24102901,cl_foods,10,test,15,assets\cl_foods\foods_4.png,0,,1509.22,0.0,1.0
24102901,cl_foods,10,test,16,assets\cl_foods\foods_76.png,0,,1510.95,0.0,1.0
24102901,cl_foods,10,test,17,assets\cl_foods\foods_59.png,0,,1512.68,0.0,1.0
24102901,cl_foods,10,test,18,assets\cl_foods\foods_61.png,0,,1514.41,0.0,1.0
24102901,cl_foods,10,test,19,assets\cl_foods\foods_60.png,0,,1516.14,0.0,1.0
24102901,cl_foods,10,test,20,assets\cl_foods\foods_57.png,0,,1517.87,0.0,1.0
24102901,cl_animals,1,test,0,assets\cl_animals\animals_1.png,1,0.518,1543.12,,
24102901,cl_animals,1,test,1,assets\cl_animals\animals_35.png,0,,1544.85,0.0,1.0
24102901,cl_animals,1,test,2,assets\cl_animals\animals_56.png,0,,1546.59,0.0,1.0
24102901,cl_animals,1,test,3,assets\cl_animals\animals_28.png,0,,1548.32,0.0,1.0
24102901,cl_animals,1,test,4,assets\cl_animals\animals_4.png,0,,1550.05,0.0,1.0
24102901,cl_animals,1,test,5,assets\cl_animals\animals_67.png,0,,1551.79,0.0,1.0
24102901,cl_animals,1,test,6,assets\cl_animals\animals_19.png,0,,1553.52,0.0,1.0
24102901,cl_animals,1,test,7,assets\cl_animals\animals_57.png,0,,1555.26,0.0,1.0
24102901,cl_animals,1,test,8,assets\cl_animals\animals_85.png,0,,1556.99,0.0,1.0
24102901,cl_animals,1,test,9,assets\cl_animals\animals_63.png,0,,1558.73,0.0,1.0
24102901,cl_animals,1,test,10,assets\cl_animals\animals_65.png,0,,1560.46,0.0,1.0
24102901,cl_animals,1,test,11,assets\cl_animals\animals_73.png,0,,1562.2,0.0,1.0
24102901,cl_animals,1,test,12,assets\cl_animals\animals_30.png,0,,1563.93,0.0,1.0
24102901,cl_animals,1,test,13,assets\cl_animals\animals_30.png,1,0.798,1565.66,1.0,1.0
24102901,cl_animals,1,test,14,assets\cl_animals\animals_3.png,0,,1567.4,0.0,1.0
24102901,cl_animals,1,test,15,assets\cl_animals\animals_37.png,0,,1569.14,0.0,1.0
24102901,cl_animals,1,test,16,assets\cl_animals\animals_40.png,0,,1570.87,0.0,1.0
24102901,cl_animals,1,test,17,assets\cl_animals\animals_54.png,0,,1572.61,0.0,1.0
24102901,cl_animals,1,test,18,assets\cl_animals\animals_12.png,0,,1574.34,0.0,1.0
24102901,cl_animals,1,test,19,assets\cl_animals\animals_81.png,0,,1576.07,0.0,1.0
24102901,cl_animals,1,test,20,assets\cl_animals\animals_18.png,0,,1577.8,0.0,1.0
24102901,cl_animals,2,test,0,assets\cl_animals\animals_75.png,0,,1585.25,,
24102901,cl_animals,2,test,1,assets\cl_animals\animals_55.png,0,,1586.98,0.0,1.0
24102901,cl_animals,2,test,2,assets\cl_animals\animals_2.png,0,,1588.71,0.0,1.0
24102901,cl_animals,2,test,3,assets\cl_animals\animals_90.png,0,,1590.45,0.0,1.0
24102901,cl_animals,2,test,4,assets\cl_animals\animals_10.png,0,,1592.18,0.0,1.0
24102901,cl_animals,2,test,5,assets\cl_animals\animals_26.png,0,,1593.91,0.0,1.0
24102901,cl_animals,2,test,6,assets\cl_animals\animals_26.png,1,0.551,1595.64,1.0,1.0
24102901,cl_animals,2,test,7,assets\cl_animals\animals_25.png,0,,1597.37,0.0,1.0
24102901,cl_animals,2,test,8,assets\cl_animals\animals_88.png,0,,1599.1,0.0,1.0
24102901,cl_animals,2,test,9,assets\cl_animals\animals_51.png,0,,1600.83,0.0,1.0
24102901,cl_animals,2,test,10,assets\cl_animals\animals_9.png,0,,1602.57,0.0,1.0
24102901,cl_animals,2,test,11,assets\cl_animals\animals_31.png,0,,1604.3,0.0,1.0
24102901,cl_animals,2,test,12,assets\cl_animals\animals_48.png,0,,1606.03,0.0,1.0
24102901,cl_animals,2,test,13,assets\cl_animals\animals_7.png,0,,1607.77,0.0,1.0
24102901,cl_animals,2,test,14,assets\cl_animals\animals_86.png,0,,1609.51,0.0,1.0
24102901,cl_animals,2,test,15,assets\cl_animals\animals_27.png,0,,1611.24,0.0,1.0
24102901,cl_animals,2,test,16,assets\cl_animals\animals_69.png,0,,1612.97,0.0,1.0
24102901,cl_animals,2,test,17,assets\cl_animals\animals_72.png,0,,1614.71,0.0,1.0
24102901,cl_animals,2,test,18,assets\cl_animals\animals_72.png,1,0.522,1616.43,1.0,1.0
24102901,cl_animals,2,test,19,assets\cl_animals\animals_66.png,0,,1618.17,0.0,1.0
24102901,cl_animals,2,test,20,assets\cl_animals\animals_70.png,0,,1619.9,0.0,1.0
24102901,cl_animals,3,test,0,assets\cl_animals\animals_59.png,0,,1628.8,,
24102901,cl_animals,3,test,1,assets\cl_animals\animals_4.png,0,,1630.53,0.0,1.0
24102901,cl_animals,3,test,2,assets\cl_animals\animals_21.png,0,,1632.27,0.0,1.0
24102901,cl_animals,3,test,3,assets\cl_animals\animals_62.png,0,,1634.0,0.0,1.0
24102901,cl_animals,3,test,4,assets\cl_animals\animals_62.png,1,0.832,1635.73,1.0,1.0
24102901,cl_animals,3,test,5,assets\cl_animals\animals_62.png,1,0.461,1637.45,1.0,1.0
24102901,cl_animals,3,test,6,assets\cl_animals\animals_14.png,0,,1639.19,0.0,1.0
24102901,cl_animals,3,test,7,assets\cl_animals\animals_80.png,0,,1640.93,0.0,1.0
24102901,cl_animals,3,test,8,assets\cl_animals\animals_80.png,1,0.798,1642.65,1.0,1.0
24102901,cl_animals,3,test,9,assets\cl_animals\animals_20.png,0,,1644.38,0.0,1.0
24102901,cl_animals,3,test,10,assets\cl_animals\animals_53.png,0,,1646.11,0.0,1.0
24102901,cl_animals,3,test,11,assets\cl_animals\animals_41.png,0,,1647.84,0.0,1.0
24102901,cl_animals,3,test,12,assets\cl_animals\animals_41.png,1,0.523,1649.56,1.0,1.0
24102901,cl_animals,3,test,13,assets\cl_animals\animals_54.png,0,,1651.29,0.0,1.0
24102901,cl_animals,3,test,14,assets\cl_animals\animals_38.png,0,,1653.03,0.0,1.0
24102901,cl_animals,3,test,15,assets\cl_animals\animals_18.png,0,,1654.75,0.0,1.0
24102901,cl_animals,3,test,16,assets\cl_animals\animals_60.png,0,,1656.48,0.0,1.0
24102901,cl_animals,3,test,17,assets\cl_animals\animals_87.png,0,,1658.21,0.0,1.0
24102901,cl_animals,3,test,18,assets\cl_animals\animals_87.png,1,0.528,1659.94,1.0,1.0
24102901,cl_animals,3,test,19,assets\cl_animals\animals_57.png,0,,1661.67,0.0,1.0
24102901,cl_animals,3,test,20,assets\cl_animals\animals_81.png,0,,1663.39,0.0,1.0
24102901,cl_animals,4,test,0,assets\cl_animals\animals_79.png,0,,1673.42,,
24102901,cl_animals,4,test,1,assets\cl_animals\animals_68.png,0,,1675.14,0.0,1.0
24102901,cl_animals,4,test,2,assets\cl_animals\animals_12.png,0,,1676.87,0.0,1.0
24102901,cl_animals,4,test,3,assets\cl_animals\animals_34.png,0,,1678.6,0.0,1.0
24102901,cl_animals,4,test,4,assets\cl_animals\animals_84.png,0,,1680.33,0.0,1.0
24102901,cl_animals,4,test,5,assets\cl_animals\animals_52.png,0,,1682.07,0.0,1.0
24102901,cl_animals,4,test,6,assets\cl_animals\animals_63.png,0,,1683.79,0.0,1.0
24102901,cl_animals,4,test,7,assets\cl_animals\animals_15.png,0,,1685.52,0.0,1.0
24102901,cl_animals,4,test,8,assets\cl_animals\animals_48.png,0,,1687.24,0.0,1.0
24102901,cl_animals,4,test,9,assets\cl_animals\animals_2.png,0,,1688.97,0.0,1.0
24102901,cl_animals,4,test,10,assets\cl_animals\animals_39.png,0,,1690.7,0.0,1.0
24102901,cl_animals,4,test,11,assets\cl_animals\animals_10.png,0,,1692.43,0.0,1.0
24102901,cl_animals,4,test,12,assets\cl_animals\animals_7.png,0,,1694.15,0.0,1.0
24102901,cl_animals,4,test,13,assets\cl_animals\animals_73.png,0,,1695.88,0.0,1.0
24102901,cl_animals,4,test,14,assets\cl_animals\animals_72.png,0,,1697.61,0.0,1.0
24102901,cl_animals,4,test,15,assets\cl_animals\animals_36.png,0,,1699.34,0.0,1.0
24102901,cl_animals,4,test,16,assets\cl_animals\animals_75.png,0,,1701.07,0.0,1.0
24102901,cl_animals,4,test,17,assets\cl_animals\animals_25.png,0,,1702.79,0.0,1.0
24102901,cl_animals,4,test,18,assets\cl_animals\animals_61.png,0,,1704.52,0.0,1.0
24102901,cl_animals,4,test,19,assets\cl_animals\animals_61.png,1,0.657,1706.24,1.0,1.0
24102901,cl_animals,4,test,20,assets\cl_animals\animals_62.png,0,,1707.97,0.0,1.0
24102901,cl_animals,5,test,0,assets\cl_animals\animals_4.png,0,,1715.44,,
24102901,cl_animals,5,test,1,assets\cl_animals\animals_8.png,0,,1717.17,0.0,1.0
24102901,cl_animals,5,test,2,assets\cl_animals\animals_21.png,0,,1718.9,0.0,1.0
24102901,cl_animals,5,test,3,assets\cl_animals\animals_51.png,0,,1720.62,0.0,1.0
24102901,cl_animals,5,test,4,assets\cl_animals\animals_44.png,0,,1722.34,0.0,1.0
24102901,cl_animals,5,test,5,assets\cl_animals\animals_66.png,0,,1724.07,0.0,1.0
24102901,cl_animals,5,test,6,assets\cl_animals\animals_66.png,1,0.771,1725.79,1.0,1.0
24102901,cl_animals,5,test,7,assets\cl_animals\animals_78.png,0,,1727.52,0.0,1.0
24102901,cl_animals,5,test,8,assets\cl_animals\animals_60.png,0,,1729.25,0.0,1.0
24102901,cl_animals,5,test,9,assets\cl_animals\animals_20.png,0,,1730.97,0.0,1.0
24102901,cl_animals,5,test,10,assets\cl_animals\animals_29.png,0,,1732.7,0.0,1.0
24102901,cl_animals,5,test,11,assets\cl_animals\animals_69.png,0,,1734.43,0.0,1.0
24102901,cl_animals,5,test,12,assets\cl_animals\animals_50.png,0,,1736.16,0.0,1.0
24102901,cl_animals,5,test,13,assets\cl_animals\animals_65.png,0,,1737.89,0.0,1.0
24102901,cl_animals,5,test,14,assets\cl_animals\animals_33.png,0,,1739.62,0.0,1.0
24102901,cl_animals,5,test,15,assets\cl_animals\animals_87.png,0,,1741.35,0.0,1.0
24102901,cl_animals,5,test,16,assets\cl_animals\animals_89.png,0,,1743.08,0.0,1.0
24102901,cl_animals,5,test,17,assets\cl_animals\animals_24.png,0,,1744.81,0.0,1.0
24102901,cl_animals,5,test,18,assets\cl_animals\animals_3.png,0,,1746.54,0.0,1.0
24102901,cl_animals,5,test,19,assets\cl_animals\animals_90.png,0,,1748.27,0.0,1.0
24102901,cl_animals,5,test,20,assets\cl_animals\animals_11.png,0,,1750.0,0.0,1.0
24102901,cl_animals,6,test,0,assets\cl_animals\animals_34.png,0,,1760.31,,
24102901,cl_animals,6,test,1,assets\cl_animals\animals_79.png,0,,1762.04,0.0,1.0
24102901,cl_animals,6,test,2,assets\cl_animals\animals_28.png,0,,1763.76,0.0,1.0
24102901,cl_animals,6,test,3,assets\cl_animals\animals_59.png,0,,1765.49,0.0,1.0
24102901,cl_animals,6,test,4,assets\cl_animals\animals_10.png,0,,1767.21,0.0,1.0
24102901,cl_animals,6,test,5,assets\cl_animals\animals_43.png,0,,1768.95,0.0,1.0
24102901,cl_animals,6,test,6,assets\cl_animals\animals_43.png,1,0.554,1770.67,1.0,1.0
24102901,cl_animals,6,test,7,assets\cl_animals\animals_38.png,0,,1772.4,0.0,1.0
24102901,cl_animals,6,test,8,assets\cl_animals\animals_82.png,0,,1774.13,0.0,1.0
24102901,cl_animals,6,test,9,assets\cl_animals\animals_53.png,0,,1775.86,0.0,1.0
24102901,cl_animals,6,test,10,assets\cl_animals\animals_80.png,0,,1777.58,0.0,1.0
24102901,cl_animals,6,test,11,assets\cl_animals\animals_36.png,0,,1779.31,0.0,1.0
24102901,cl_animals,6,test,12,assets\cl_animals\animals_17.png,0,,1781.04,0.0,1.0
24102901,cl_animals,6,test,13,assets\cl_animals\animals_56.png,0,,1782.77,0.0,1.0
24102901,cl_animals,6,test,14,assets\cl_animals\animals_61.png,0,,1784.49,0.0,1.0
24102901,cl_animals,6,test,15,assets\cl_animals\animals_19.png,0,,1786.22,0.0,1.0
24102901,cl_animals,6,test,16,assets\cl_animals\animals_68.png,0,,1787.94,0.0,1.0
24102901,cl_animals,6,test,17,assets\cl_animals\animals_46.png,0,,1789.67,0.0,1.0
24102901,cl_animals,6,test,18,assets\cl_animals\animals_63.png,0,,1791.4,0.0,1.0
24102901,cl_animals,6,test,19,assets\cl_animals\animals_40.png,0,,1793.13,0.0,1.0
24102901,cl_animals,6,test,20,assets\cl_animals\animals_12.png,0,,1794.86,0.0,1.0
24102901,cl_animals,7,test,0,assets\cl_animals\animals_54.png,0,,1802.35,,
24102901,cl_animals,7,test,1,assets\cl_animals\animals_7.png,0,,1804.08,0.0,1.0
24102901,cl_animals,7,test,2,assets\cl_animals\animals_14.png,0,,1805.81,0.0,1.0
24102901,cl_animals,7,test,3,assets\cl_animals\animals_58.png,0,,1807.54,0.0,1.0
24102901,cl_animals,7,test,4,assets\cl_animals\animals_33.png,0,,1809.27,0.0,1.0
24102901,cl_animals,7,test,5,assets\cl_animals\animals_37.png,0,,1810.99,0.0,1.0
24102901,cl_animals,7,test,6,assets\cl_animals\animals_89.png,0,,1812.72,0.0,1.0
24102901,cl_animals,7,test,7,assets\cl_animals\animals_57.png,0,,1814.45,0.0,1.0
24102901,cl_animals,7,test,8,assets\cl_animals\animals_1.png,0,,1816.17,0.0,1.0
24102901,cl_animals,7,test,9,assets\cl_animals\animals_48.png,0,,1817.9,0.0,1.0
24102901,cl_animals,7,test,10,assets\cl_animals\animals_74.png,0,,1819.63,0.0,1.0
24102901,cl_animals,7,test,11,assets\cl_animals\animals_86.png,0,,1821.36,0.0,1.0
24102901,cl_animals,7,test,12,assets\cl_animals\animals_41.png,0,,1823.08,0.0,1.0
24102901,cl_animals,7,test,13,assets\cl_animals\animals_41.png,1,0.486,1824.81,1.0,1.0
24102901,cl_animals,7,test,14,assets\cl_animals\animals_41.png,1,0.393,1826.53,1.0,1.0
24102901,cl_animals,7,test,15,assets\cl_animals\animals_55.png,0,,1828.25,0.0,1.0
24102901,cl_animals,7,test,16,assets\cl_animals\animals_77.png,0,,1829.99,0.0,1.0
24102901,cl_animals,7,test,17,assets\cl_animals\animals_85.png,0,,1831.71,0.0,1.0
24102901,cl_animals,7,test,18,assets\cl_animals\animals_65.png,0,,1833.44,0.0,1.0
24102901,cl_animals,7,test,19,assets\cl_animals\animals_60.png,0,,1835.17,0.0,1.0
24102901,cl_animals,7,test,20,assets\cl_animals\animals_3.png,0,,1836.89,0.0,1.0
24102901,cl_animals,8,test,0,assets\cl_animals\animals_72.png,0,,1845.01,,
24102901,cl_animals,8,test,1,assets\cl_animals\animals_59.png,0,,1846.73,0.0,1.0
24102901,cl_animals,8,test,2,assets\cl_animals\animals_59.png,1,0.906,1848.46,1.0,1.0
24102901,cl_animals,8,test,3,assets\cl_animals\animals_59.png,1,0.437,1850.18,1.0,1.0
24102901,cl_animals,8,test,4,assets\cl_animals\animals_15.png,0,,1851.91,0.0,1.0
24102901,cl_animals,8,test,5,assets\cl_animals\animals_50.png,0,,1853.63,0.0,1.0
24102901,cl_animals,8,test,6,assets\cl_animals\animals_84.png,0,,1855.36,0.0,1.0
24102901,cl_animals,8,test,7,assets\cl_animals\animals_78.png,0,,1857.09,0.0,1.0
24102901,cl_animals,8,test,8,assets\cl_animals\animals_80.png,0,,1858.81,0.0,1.0
24102901,cl_animals,8,test,9,assets\cl_animals\animals_24.png,0,,1860.54,0.0,1.0
24102901,cl_animals,8,test,10,assets\cl_animals\animals_23.png,0,,1862.27,0.0,1.0
24102901,cl_animals,8,test,11,assets\cl_animals\animals_23.png,1,0.491,1863.99,1.0,1.0
24102901,cl_animals,8,test,12,assets\cl_animals\animals_45.png,0,,1865.73,0.0,1.0
24102901,cl_animals,8,test,13,assets\cl_animals\animals_18.png,0,,1867.45,0.0,1.0
24102901,cl_animals,8,test,14,assets\cl_animals\animals_27.png,0,,1869.18,0.0,1.0
24102901,cl_animals,8,test,15,assets\cl_animals\animals_12.png,0,,1870.91,0.0,1.0
24102901,cl_animals,8,test,16,assets\cl_animals\animals_73.png,0,,1872.64,0.0,1.0
24102901,cl_animals,8,test,17,assets\cl_animals\animals_47.png,0,,1874.37,0.0,1.0
24102901,cl_animals,8,test,18,assets\cl_animals\animals_31.png,0,,1876.1,0.0,1.0
24102901,cl_animals,8,test,19,assets\cl_animals\animals_35.png,0,,1877.83,0.0,1.0
24102901,cl_animals,8,test,20,assets\cl_animals\animals_63.png,0,,1879.56,0.0,1.0
24102901,cl_animals,9,test,0,assets\cl_animals\animals_11.png,0,,1888.37,,
24102901,cl_animals,9,test,1,assets\cl_animals\animals_76.png,0,,1890.1,0.0,1.0
24102901,cl_animals,9,test,2,assets\cl_animals\animals_82.png,0,,1891.83,0.0,1.0
24102901,cl_animals,9,test,3,assets\cl_animals\animals_32.png,0,,1893.56,0.0,1.0
24102901,cl_animals,9,test,4,assets\cl_animals\animals_16.png,0,,1895.29,0.0,1.0
24102901,cl_animals,9,test,5,assets\cl_animals\animals_16.png,1,0.468,1897.02,1.0,1.0
24102901,cl_animals,9,test,6,assets\cl_animals\animals_6.png,0,,1898.75,0.0,1.0
24102901,cl_animals,9,test,7,assets\cl_animals\animals_29.png,0,,1900.47,0.0,1.0
24102901,cl_animals,9,test,8,assets\cl_animals\animals_58.png,0,,1902.2,0.0,1.0
24102901,cl_animals,9,test,9,assets\cl_animals\animals_44.png,0,,1903.93,0.0,1.0
24102901,cl_animals,9,test,10,assets\cl_animals\animals_57.png,0,,1905.65,0.0,1.0
24102901,cl_animals,9,test,11,assets\cl_animals\animals_36.png,0,,1907.38,0.0,1.0
24102901,cl_animals,9,test,12,assets\cl_animals\animals_48.png,0,,1909.11,0.0,1.0
24102901,cl_animals,9,test,13,assets\cl_animals\animals_83.png,0,,1910.84,0.0,1.0
24102901,cl_animals,9,test,14,assets\cl_animals\animals_66.png,0,,1912.57,0.0,1.0
24102901,cl_animals,9,test,15,assets\cl_animals\animals_49.png,0,,1914.29,0.0,1.0
24102901,cl_animals,9,test,16,assets\cl_animals\animals_26.png,0,,1916.02,0.0,1.0
24102901,cl_animals,9,test,17,assets\cl_animals\animals_5.png,0,,1917.75,0.0,1.0
24102901,cl_animals,9,test,18,assets\cl_animals\animals_5.png,1,0.426,1919.47,1.0,1.0
24102901,cl_animals,9,test,19,assets\cl_animals\animals_7.png,0,,1921.2,0.0,1.0
24102901,cl_animals,9,test,20,assets\cl_animals\animals_55.png,0,,1922.92,0.0,1.0
24102901,cl_animals,10,test,0,assets\cl_animals\animals_38.png,0,,1930.34,,
24102901,cl_animals,10,test,1,assets\cl_animals\animals_30.png,0,,1932.07,0.0,1.0
24102901,cl_animals,10,test,2,assets\cl_animals\animals_13.png,0,,1933.79,0.0,1.0
24102901,cl_animals,10,test,3,assets\cl_animals\animals_52.png,0,,1935.52,0.0,1.0
24102901,cl_animals,10,test,4,assets\cl_animals\animals_23.png,0,,1937.25,0.0,1.0
24102901,cl_animals,10,test,5,assets\cl_animals\animals_19.png,0,,1938.97,0.0,1.0
24102901,cl_animals,10,test,6,assets\cl_animals\animals_42.png,0,,1940.71,0.0,1.0
24102901,cl_animals,10,test,7,assets\cl_animals\animals_17.png,0,,1942.44,0.0,1.0
24102901,cl_animals,10,test,8,assets\cl_animals\animals_45.png,0,,1944.16,0.0,1.0
24102901,cl_animals,10,test,9,assets\cl_animals\animals_54.png,0,,1945.89,0.0,1.0
24102901,cl_animals,10,test,10,assets\cl_animals\animals_12.png,0,,1947.62,0.0,1.0
24102901,cl_animals,10,test,11,assets\cl_animals\animals_39.png,0,,1949.35,0.0,1.0
24102901,cl_animals,10,test,12,assets\cl_animals\animals_39.png,1,0.506,1951.07,1.0,1.0
24102901,cl_animals,10,test,13,assets\cl_animals\animals_1.png,0,,1952.8,0.0,1.0
24102901,cl_animals,10,test,14,assets\cl_animals\animals_84.png,0,,1954.53,0.0,1.0
24102901,cl_animals,10,test,15,assets\cl_animals\animals_74.png,0,,1956.25,0.0,1.0
24102901,cl_animals,10,test,16,assets\cl_animals\animals_71.png,0,,1957.99,0.0,1.0
24102901,cl_animals,10,test,17,assets\cl_animals\animals_4.png,0,,1959.71,0.0,1.0
24102901,cl_animals,10,test,18,assets\cl_animals\animals_59.png,0,,1961.44,0.0,1.0
24102901,cl_animals,10,test,19,assets\cl_animals\animals_67.png,0,,1963.17,0.0,1.0
24102901,cl_animals,10,test,20,assets\cl_animals\animals_14.png,1,0.486,1964.9,0.0,0.0
24102901,cl_faces,1,test,0,assets\cl_faces\faces_79.png,0,,2380.67,,
24102901,cl_faces,1,test,1,assets\cl_faces\faces_24.png,0,,2382.4,0.0,1.0
24102901,cl_faces,1,test,2,assets\cl_faces\faces_30.png,0,,2384.13,0.0,1.0
24102901,cl_faces,1,test,3,assets\cl_faces\faces_22.png,0,,2385.86,0.0,1.0
24102901,cl_faces,1,test,4,assets\cl_faces\faces_72.png,0,,2387.6,0.0,1.0
24102901,cl_faces,1,test,5,assets\cl_faces\faces_17.png,0,,2389.33,0.0,1.0
24102901,cl_faces,1,test,6,assets\cl_faces\faces_49.png,0,,2391.07,0.0,1.0
24102901,cl_faces,1,test,7,assets\cl_faces\faces_20.png,0,,2392.79,0.0,1.0
24102901,cl_faces,1,test,8,assets\cl_faces\faces_32.png,0,,2394.53,0.0,1.0
24102901,cl_faces,1,test,9,assets\cl_faces\faces_74.png,0,,2396.26,0.0,1.0
24102901,cl_faces,1,test,10,assets\cl_faces\faces_68.png,0,,2397.99,0.0,1.0
24102901,cl_faces,1,test,11,assets\cl_faces\faces_25.png,0,,2399.72,0.0,1.0
24102901,cl_faces,1,test,12,assets\cl_faces\faces_69.png,0,,2401.46,0.0,1.0
24102901,cl_faces,1,test,13,assets\cl_faces\faces_50.png,0,,2403.19,0.0,1.0
24102901,cl_faces,1,test,14,assets\cl_faces\faces_82.png,0,,2404.92,0.0,1.0
24102901,cl_faces,1,test,15,assets\cl_faces\faces_83.png,0,,2406.66,0.0,1.0
24102901,cl_faces,1,test,16,assets\cl_faces\faces_51.png,0,,2408.39,0.0,1.0
24102901,cl_faces,1,test,17,assets\cl_faces\faces_18.png,0,,2410.12,0.0,1.0
24102901,cl_faces,1,test,18,assets\cl_faces\faces_77.png,0,,2411.85,0.0,1.0
24102901,cl_faces,1,test,19,assets\cl_faces\faces_77.png,1,0.576,2413.58,1.0,1.0
24102901,cl_faces,1,test,20,assets\cl_faces\faces_58.png,0,,2415.31,0.0,1.0
24102901,cl_faces,2,test,0,assets\cl_faces\faces_28.png,0,,2422.74,,
24102901,cl_faces,2,test,1,assets\cl_faces\faces_61.png,0,,2424.47,0.0,1.0
24102901,cl_faces,2,test,2,assets\cl_faces\faces_37.png,0,,2426.21,0.0,1.0
24102901,cl_faces,2,test,3,assets\cl_faces\faces_43.png,0,,2427.94,0.0,1.0
24102901,cl_faces,2,test,4,assets\cl_faces\faces_43.png,1,0.494,2429.66,1.0,1.0
24102901,cl_faces,2,test,5,assets\cl_faces\faces_70.png,0,,2431.4,0.0,1.0
24102901,cl_faces,2,test,6,assets\cl_faces\faces_44.png,0,,2433.13,0.0,1.0
24102901,cl_faces,2,test,7,assets\cl_faces\faces_52.png,0,,2434.86,0.0,1.0
24102901,cl_faces,2,test,8,assets\cl_faces\faces_63.png,0,,2436.6,0.0,1.0
24102901,cl_faces,2,test,9,assets\cl_faces\faces_35.png,0,,2438.32,0.0,1.0
24102901,cl_faces,2,test,10,assets\cl_faces\faces_66.png,0,,2440.06,0.0,1.0
24102901,cl_faces,2,test,11,assets\cl_faces\faces_84.png,0,,2441.78,0.0,1.0
24102901,cl_faces,2,test,12,assets\cl_faces\faces_11.png,0,,2443.52,0.0,1.0
24102901,cl_faces,2,test,13,assets\cl_faces\faces_3.png,0,,2445.25,0.0,1.0
24102901,cl_faces,2,test,14,assets\cl_faces\faces_48.png,0,,2446.98,0.0,1.0
24102901,cl_faces,2,test,15,assets\cl_faces\faces_67.png,0,,2448.71,0.0,1.0
24102901,cl_faces,2,test,16,assets\cl_faces\faces_31.png,0,,2450.45,0.0,1.0
24102901,cl_faces,2,test,17,assets\cl_faces\faces_16.png,0,,2452.18,0.0,1.0
24102901,cl_faces,2,test,18,assets\cl_faces\faces_42.png,0,,2453.92,0.0,1.0
24102901,cl_faces,2,test,19,assets\cl_faces\faces_40.png,0,,2455.65,0.0,1.0
24102901,cl_faces,2,test,20,assets\cl_faces\faces_20.png,0,,2457.38,0.0,1.0
24102901,cl_faces,3,test,0,assets\cl_faces\faces_27.png,0,,2467.34,,
24102901,cl_faces,3,test,1,assets\cl_faces\faces_68.png,0,,2469.07,0.0,1.0
24102901,cl_faces,3,test,2,assets\cl_faces\faces_41.png,0,,2470.81,0.0,1.0
24102901,cl_faces,3,test,3,assets\cl_faces\faces_36.png,0,,2472.54,0.0,1.0
24102901,cl_faces,3,test,4,assets\cl_faces\faces_88.png,0,,2474.27,0.0,1.0
24102901,cl_faces,3,test,5,assets\cl_faces\faces_62.png,0,,2476.01,0.0,1.0
24102901,cl_faces,3,test,6,assets\cl_faces\faces_25.png,0,,2477.73,0.0,1.0
24102901,cl_faces,3,test,7,assets\cl_faces\faces_56.png,0,,2479.47,0.0,1.0
24102901,cl_faces,3,test,8,assets\cl_faces\faces_56.png,1,0.428,2481.19,1.0,1.0
24102901,cl_faces,3,test,9,assets\cl_faces\faces_85.png,0,,2482.93,0.0,1.0
24102901,cl_faces,3,test,10,assets\cl_faces\faces_26.png,0,,2484.66,0.0,1.0
24102901,cl_faces,3,test,11,assets\cl_faces\faces_75.png,0,,2486.39,0.0,1.0
24102901,cl_faces,3,test,12,assets\cl_faces\faces_22.png,0,,2488.12,0.0,1.0
24102901,cl_faces,3,test,13,assets\cl_faces\faces_28.png,0,,2489.85,0.0,1.0
24102901,cl_faces,3,test,14,assets\cl_faces\faces_89.png,0,,2491.58,0.0,1.0
24102901,cl_faces,3,test,15,assets\cl_faces\faces_87.png,0,,2493.31,0.0,1.0
24102901,cl_faces,3,test,16,assets\cl_faces\faces_70.png,0,,2495.04,0.0,1.0
24102901,cl_faces,3,test,17,assets\cl_faces\faces_72.png,0,,2496.77,0.0,1.0
24102901,cl_faces,3,test,18,assets\cl_faces\faces_12.png,0,,2498.5,0.0,1.0
24102901,cl_faces,3,test,19,assets\cl_faces\faces_29.png,0,,2500.24,0.0,1.0
24102901,cl_faces,3,test,20,assets\cl_faces\faces_29.png,1,0.527,2501.97,1.0,1.0
24102901,cl_faces,4,test,0,assets\cl_faces\faces_15.png,0,,2510.18,,
24102901,cl_faces,4,test,1,assets\cl_faces\faces_13.png,0,,2511.92,0.0,1.0
24102901,cl_faces,4,test,2,assets\cl_faces\faces_66.png,0,,2513.64,0.0,1.0
24102901,cl_faces,4,test,3,assets\cl_faces\faces_55.png,0,,2515.37,0.0,1.0
24102901,cl_faces,4,test,4,assets\cl_faces\faces_84.png,0,,2517.1,0.0,1.0
24102901,cl_faces,4,test,5,assets\cl_faces\faces_43.png,0,,2518.83,0.0,1.0
24102901,cl_faces,4,test,6,assets\cl_faces\faces_43.png,1,0.747,2520.55,1.0,1.0
24102901,cl_faces,4,test,7,assets\cl_faces\faces_82.png,0,,2522.28,0.0,1.0
24102901,cl_faces,4,test,8,assets\cl_faces\faces_5.png,0,,2524.01,0.0,1.0
24102901,cl_faces,4,test,9,assets\cl_faces\faces_10.png,0,,2525.75,0.0,1.0
24102901,cl_faces,4,test,10,assets\cl_faces\faces_45.png,0,,2527.48,0.0,1.0
24102901,cl_faces,4,test,11,assets\cl_faces\faces_33.png,0,,2529.21,0.0,1.0
24102901,cl_faces,4,test,12,assets\cl_faces\faces_9.png,0,,2530.94,0.0,1.0
24102901,cl_faces,4,test,13,assets\cl_faces\faces_52.png,0,,2532.67,0.0,1.0
24102901,cl_faces,4,test,14,assets\cl_faces\faces_21.png,0,,2534.4,0.0,1.0
24102901,cl_faces,4,test,15,assets\cl_faces\faces_14.png,0,,2536.13,0.0,1.0
24102901,cl_faces,4,test,16,assets\cl_faces\faces_14.png,1,0.544,2537.86,1.0,1.0
24102901,cl_faces,4,test,17,assets\cl_faces\faces_14.png,1,0.553,2539.59,1.0,1.0
24102901,cl_faces,4,test,18,assets\cl_faces\faces_23.png,0,,2541.32,0.0,1.0
24102901,cl_faces,4,test,19,assets\cl_faces\faces_38.png,0,,2543.05,0.0,1.0
24102901,cl_faces,4,test,20,assets\cl_faces\faces_86.png,0,,2544.79,0.0,1.0
24102901,cl_faces,5,test,0,assets\cl_faces\faces_2.png,0,,2554.68,,
24102901,cl_faces,5,test,1,assets\cl_faces\faces_80.png,0,,2556.41,0.0,1.0
24102901,cl_faces,5,test,2,assets\cl_faces\faces_37.png,0,,2558.14,0.0,1.0
24102901,cl_faces,5,test,3,assets\cl_faces\faces_83.png,0,,2559.86,0.0,1.0
24102901,cl_faces,5,test,4,assets\cl_faces\faces_74.png,0,,2561.59,0.0,1.0
24102901,cl_faces,5,test,5,assets\cl_faces\faces_63.png,0,,2563.32,0.0,1.0
24102901,cl_faces,5,test,6,assets\cl_faces\faces_36.png,0,,2565.04,0.0,1.0
24102901,cl_faces,5,test,7,assets\cl_faces\faces_65.png,0,,2566.78,0.0,1.0
24102901,cl_faces,5,test,8,assets\cl_faces\faces_4.png,0,,2568.5,0.0,1.0
24102901,cl_faces,5,test,9,assets\cl_faces\faces_53.png,0,,2570.24,0.0,1.0
24102901,cl_faces,5,test,10,assets\cl_faces\faces_6.png,0,,2571.97,0.0,1.0
24102901,cl_faces,5,test,11,assets\cl_faces\faces_89.png,0,,2573.7,0.0,1.0
24102901,cl_faces,5,test,12,assets\cl_faces\faces_57.png,0,,2575.43,0.0,1.0
24102901,cl_faces,5,test,13,assets\cl_faces\faces_24.png,0,,2577.16,0.0,1.0
24102901,cl_faces,5,test,14,assets\cl_faces\faces_87.png,0,,2578.89,0.0,1.0
24102901,cl_faces,5,test,15,assets\cl_faces\faces_7.png,0,,2580.62,0.0,1.0
24102901,cl_faces,5,test,16,assets\cl_faces\faces_81.png,0,,2582.35,0.0,1.0
24102901,cl_faces,5,test,17,assets\cl_faces\faces_50.png,0,,2584.08,0.0,1.0
24102901,cl_faces,5,test,18,assets\cl_faces\faces_51.png,0,,2585.8,0.0,1.0
24102901,cl_faces,5,test,19,assets\cl_faces\faces_58.png,0,,2587.53,0.0,1.0
24102901,cl_faces,5,test,20,assets\cl_faces\faces_84.png,0,,2589.25,0.0,1.0
24102901,cl_faces,6,test,0,assets\cl_faces\faces_75.png,0,,2596.76,,
24102901,cl_faces,6,test,1,assets\cl_faces\faces_47.png,0,,2598.48,0.0,1.0
24102901,cl_faces,6,test,2,assets\cl_faces\faces_77.png,0,,2600.21,0.0,1.0
24102901,cl_faces,6,test,3,assets\cl_faces\faces_26.png,0,,2601.94,0.0,1.0
24102901,cl_faces,6,test,4,assets\cl_faces\faces_76.png,0,,2603.67,0.0,1.0
24102901,cl_faces,6,test,5,assets\cl_faces\faces_85.png,0,,2605.4,0.0,1.0
24102901,cl_faces,6,test,6,assets\cl_faces\faces_85.png,1,0.481,2607.12,1.0,1.0
24102901,cl_faces,6,test,7,assets\cl_faces\faces_73.png,0,,2608.86,0.0,1.0
24102901,cl_faces,6,test,8,assets\cl_faces\faces_73.png,1,0.446,2610.58,1.0,1.0
24102901,cl_faces,6,test,9,assets\cl_faces\faces_56.png,0,,2612.31,0.0,1.0
24102901,cl_faces,6,test,10,assets\cl_faces\faces_15.png,0,,2614.04,0.0,1.0
24102901,cl_faces,6,test,11,assets\cl_faces\faces_88.png,0,,2615.76,0.0,1.0
24102901,cl_faces,6,test,12,assets\cl_faces\faces_60.png,0,,2617.5,0.0,1.0
24102901,cl_faces,6,test,13,assets\cl_faces\faces_80.png,0,,2619.23,0.0,1.0
24102901,cl_faces,6,test,14,assets\cl_faces\faces_13.png,0,,2620.96,0.0,1.0
24102901,cl_faces,6,test,15,assets\cl_faces\faces_13.png,1,0.666,2622.68,1.0,1.0
24102901,cl_faces,6,test,16,assets\cl_faces\faces_13.png,1,0.46,2624.41,1.0,1.0
24102901,cl_faces,6,test,17,assets\cl_faces\faces_66.png,0,,2626.13,0.0,1.0
24102901,cl_faces,6,test,18,assets\cl_faces\faces_30.png,0,,2627.86,0.0,1.0
24102901,cl_faces,6,test,19,assets\cl_faces\faces_74.png,0,,2629.59,0.0,1.0
24102901,cl_faces,6,test,20,assets\cl_faces\faces_3.png,0,,2631.31,0.0,1.0
24102901,cl_faces,7,test,0,assets\cl_faces\faces_21.png,0,,2640.13,,
24102901,cl_faces,7,test,1,assets\cl_faces\faces_21.png,1,0.641,2641.86,1.0,1.0
24102901,cl_faces,7,test,2,assets\cl_faces\faces_41.png,0,,2643.59,0.0,1.0
24102901,cl_faces,7,test,3,assets\cl_faces\faces_69.png,0,,2645.31,0.0,1.0
24102901,cl_faces,7,test,4,assets\cl_faces\faces_2.png,0,,2647.04,0.0,1.0
24102901,cl_faces,7,test,5,assets\cl_faces\faces_49.png,0,,2648.77,0.0,1.0
24102901,cl_faces,7,test,6,assets\cl_faces\faces_23.png,0,,2650.49,0.0,1.0
24102901,cl_faces,7,test,7,assets\cl_faces\faces_38.png,0,,2652.22,0.0,1.0
24102901,cl_faces,7,test,8,assets\cl_faces\faces_1.png,0,,2653.95,0.0,1.0
24102901,cl_faces,7,test,9,assets\cl_faces\faces_32.png,0,,2655.68,0.0,1.0
24102901,cl_faces,7,test,10,assets\cl_faces\faces_33.png,0,,2657.41,0.0,1.0
24102901,cl_faces,7,test,11,assets\cl_faces\faces_25.png,0,,2659.13,0.0,1.0
24102901,cl_faces,7,test,12,assets\cl_faces\faces_63.png,0,,2660.86,0.0,1.0
24102901,cl_faces,7,test,13,assets\cl_faces\faces_63.png,1,0.675,2662.59,1.0,1.0
24102901,cl_faces,7,test,14,assets\cl_faces\faces_36.png,0,,2664.31,0.0,1.0
24102901,cl_faces,7,test,15,assets\cl_faces\faces_8.png,0,,2666.04,0.0,1.0
24102901,cl_faces,7,test,16,assets\cl_faces\faces_90.png,0,,2667.77,0.0,1.0
24102901,cl_faces,7,test,17,assets\cl_faces\faces_62.png,0,,2669.5,0.0,1.0
24102901,cl_faces,7,test,18,assets\cl_faces\faces_22.png,0,,2671.22,0.0,1.0
24102901,cl_faces,7,test,19,assets\cl_faces\faces_89.png,0,,2672.95,0.0,1.0
24102901,cl_faces,7,test,20,assets\cl_faces\faces_65.png,0,,2674.68,0.0,1.0
24102901,cl_faces,8,test,0,assets\cl_faces\faces_48.png,0,,2683.07,,
24102901,cl_faces,8,test,1,assets\cl_faces\faces_18.png,0,,2684.79,0.0,1.0
24102901,cl_faces,8,test,2,assets\cl_faces\faces_28.png,0,,2686.53,0.0,1.0
24102901,cl_faces,8,test,3,assets\cl_faces\faces_81.png,0,,2688.25,0.0,1.0
24102901,cl_faces,8,test,4,assets\cl_faces\faces_51.png,0,,2689.98,0.0,1.0
24102901,cl_faces,8,test,5,assets\cl_faces\faces_34.png,0,,2691.71,0.0,1.0
24102901,cl_faces,8,test,6,assets\cl_faces\faces_34.png,1,0.72,2693.44,1.0,1.0
24102901,cl_faces,8,test,7,assets\cl_faces\faces_35.png,0,,2695.16,0.0,1.0
24102901,cl_faces,8,test,8,assets\cl_faces\faces_68.png,0,,2696.89,0.0,1.0
24102901,cl_faces,8,test,9,assets\cl_faces\faces_60.png,0,,2698.62,0.0,1.0
24102901,cl_faces,8,test,10,assets\cl_faces\faces_79.png,1,0.526,2700.34,0.0,0.0
24102901,cl_faces,8,test,11,assets\cl_faces\faces_26.png,0,,2702.07,0.0,1.0
24102901,cl_faces,8,test,12,assets\cl_faces\faces_42.png,0,,2703.8,0.0,1.0
24102901,cl_faces,8,test,13,assets\cl_faces\faces_50.png,0,,2705.52,0.0,1.0
24102901,cl_faces,8,test,14,assets\cl_faces\faces_45.png,0,,2707.25,0.0,1.0
24102901,cl_faces,8,test,15,assets\cl_faces\faces_57.png,0,,2708.98,0.0,1.0
24102901,cl_faces,8,test,16,assets\cl_faces\faces_84.png,0,,2710.7,0.0,1.0
24102901,cl_faces,8,test,17,assets\cl_faces\faces_72.png,0,,2712.43,0.0,1.0
24102901,cl_faces,8,test,18,assets\cl_faces\faces_11.png,0,,2714.16,0.0,1.0
24102901,cl_faces,8,test,19,assets\cl_faces\faces_15.png,0,,2715.88,0.0,1.0
24102901,cl_faces,8,test,20,assets\cl_faces\faces_39.png,0,,2717.62,0.0,1.0
24102901,cl_faces,9,test,0,assets\cl_faces\faces_19.png,0,,2725.3,,
24102901,cl_faces,9,test,1,assets\cl_faces\faces_80.png,0,,2727.03,0.0,1.0
24102901,cl_faces,9,test,2,assets\cl_faces\faces_76.png,0,,2728.76,0.0,1.0
24102901,cl_faces,9,test,3,assets\cl_faces\faces_74.png,0,,2730.48,0.0,1.0
24102901,cl_faces,9,test,4,assets\cl_faces\faces_38.png,0,,2732.21,0.0,1.0
24102901,cl_faces,9,test,5,assets\cl_faces\faces_13.png,0,,2733.94,0.0,1.0
24102901,cl_faces,9,test,6,assets\cl_faces\faces_17.png,0,,2735.66,0.0,1.0
24102901,cl_faces,9,test,7,assets\cl_faces\faces_85.png,0,,2737.39,0.0,1.0
24102901,cl_faces,9,test,8,assets\cl_faces\faces_7.png,0,,2739.12,0.0,1.0
24102901,cl_faces,9,test,9,assets\cl_faces\faces_36.png,0,,2740.84,0.0,1.0
24102901,cl_faces,9,test,10,assets\cl_faces\faces_58.png,0,,2742.57,0.0,1.0
24102901,cl_faces,9,test,11,assets\cl_faces\faces_21.png,0,,2744.3,0.0,1.0
24102901,cl_faces,9,test,12,assets\cl_faces\faces_23.png,0,,2746.02,0.0,1.0
24102901,cl_faces,9,test,13,assets\cl_faces\faces_48.png,0,,2747.75,0.0,1.0
24102901,cl_faces,9,test,14,assets\cl_faces\faces_53.png,0,,2749.48,0.0,1.0
24102901,cl_faces,9,test,15,assets\cl_faces\faces_67.png,0,,2751.2,0.0,1.0
24102901,cl_faces,9,test,16,assets\cl_faces\faces_73.png,0,,2752.93,0.0,1.0
24102901,cl_faces,9,test,17,assets\cl_faces\faces_30.png,0,,2754.66,0.0,1.0
24102901,cl_faces,9,test,18,assets\cl_faces\faces_30.png,1,0.814,2756.38,1.0,1.0
24102901,cl_faces,9,test,19,assets\cl_faces\faces_16.png,0,,2758.11,0.0,1.0
24102901,cl_faces,9,test,20,assets\cl_faces\faces_14.png,0,,2759.83,0.0,1.0
24102901,cl_faces,10,test,0,assets\cl_faces\faces_51.png,0,,2769.08,,
24102901,cl_faces,10,test,1,assets\cl_faces\faces_10.png,0,,2770.81,0.0,1.0
24102901,cl_faces,10,test,2,assets\cl_faces\faces_83.png,0,,2772.54,0.0,1.0
24102901,cl_faces,10,test,3,assets\cl_faces\faces_70.png,0,,2774.26,0.0,1.0
24102901,cl_faces,10,test,4,assets\cl_faces\faces_5.png,0,,2775.99,0.0,1.0
24102901,cl_faces,10,test,5,assets\cl_faces\faces_77.png,0,,2777.72,0.0,1.0
24102901,cl_faces,10,test,6,assets\cl_faces\faces_56.png,0,,2779.44,0.0,1.0
24102901,cl_faces,10,test,7,assets\cl_faces\faces_44.png,0,,2781.17,0.0,1.0
24102901,cl_faces,10,test,8,assets\cl_faces\faces_88.png,0,,2782.9,0.0,1.0
24102901,cl_faces,10,test,9,assets\cl_faces\faces_8.png,0,,2784.62,0.0,1.0
24102901,cl_faces,10,test,10,assets\cl_faces\faces_37.png,0,,2786.35,0.0,1.0
24102901,cl_faces,10,test,11,assets\cl_faces\faces_37.png,1,0.789,2788.08,1.0,1.0
24102901,cl_faces,10,test,12,assets\cl_faces\faces_71.png,0,,2789.81,0.0,1.0
24102901,cl_faces,10,test,13,assets\cl_faces\faces_26.png,0,,2791.54,0.0,1.0
24102901,cl_faces,10,test,14,assets\cl_faces\faces_49.png,0,,2793.27,0.0,1.0
24102901,cl_faces,10,test,15,assets\cl_faces\faces_35.png,0,,2794.99,0.0,1.0
24102901,cl_faces,10,test,16,assets\cl_faces\faces_65.png,0,,2796.72,0.0,1.0
24102901,cl_faces,10,test,17,assets\cl_faces\faces_6.png,0,,2798.44,0.0,1.0
24102901,cl_faces,10,test,18,assets\cl_faces\faces_80.png,0,,2800.17,0.0,1.0
24102901,cl_faces,10,test,19,assets\cl_faces\faces_39.png,0,,2801.9,0.0,1.0
24102901,cl_faces,10,test,20,assets\cl_faces\faces_47.png,0,,2803.62,0.0,1.0
24102901,cl_character,1,test,0,,0,,2831.92,,
24102901,cl_character,1,test,1,,0,,2833.66,0.0,1.0
24102901,cl_character,1,test,2,,0,,2835.39,0.0,1.0
24102901,cl_character,1,test,3,,1,0.449,2837.11,1.0,1.0
24102901,cl_character,1,test,4,,0,,2838.84,0.0,1.0
24102901,cl_character,1,test,5,,0,,2840.57,0.0,1.0
24102901,cl_character,1,test,6,,0,,2842.3,0.0,1.0
24102901,cl_character,1,test,7,,0,,2844.04,0.0,1.0
24102901,cl_character,1,test,8,,0,,2845.77,0.0,1.0
24102901,cl_character,1,test,9,,0,,2847.5,0.0,1.0
24102901,cl_character,1,test,10,,0,,2849.23,0.0,1.0
24102901,cl_character,1,test,11,,1,0.76,2850.96,1.0,1.0
24102901,cl_character,1,test,12,,0,,2852.69,0.0,1.0
24102901,cl_character,1,test,13,,0,,2854.42,0.0,1.0
24102901,cl_character,1,test,14,,0,,2856.15,0.0,1.0
24102901,cl_character,1,test,15,,0,,2857.88,0.0,1.0
24102901,cl_character,1,test,16,,0,,2859.61,0.0,1.0
24102901,cl_character,1,test,17,,0,,2861.33,0.0,1.0
24102901,cl_character,1,test,18,,0,,2863.06,0.0,1.0
24102901,cl_character,1,test,19,,0,,2864.8,0.0,1.0
24102901,cl_character,1,test,20,,0,,2866.53,0.0,1.0
24102901,cl_character,2,test,0,,0,,2876.11,,
24102901,cl_character,2,test,1,,0,,2877.84,0.0,1.0
24102901,cl_character,2,test,2,,0,,2879.56,0.0,1.0
24102901,cl_character,2,test,3,,1,0.719,2881.29,1.0,1.0
24102901,cl_character,2,test,4,,0,,2883.02,0.0,1.0
24102901,cl_character,2,test,5,,0,,2884.74,0.0,1.0
24102901,cl_character,2,test,6,,0,,2886.47,0.0,1.0
24102901,cl_character,2,test,7,,0,,2888.2,0.0,1.0
24102901,cl_character,2,test,8,,0,,2889.93,0.0,1.0
24102901,cl_character,2,test,9,,0,,2891.65,0.0,1.0
24102901,cl_character,2,test,10,,0,,2893.38,0.0,1.0
24102901,cl_character,2,test,11,,0,,2895.11,0.0,1.0
24102901,cl_character,2,test,12,,0,,2896.83,0.0,1.0
24102901,cl_character,2,test,13,,0,,2898.57,0.0,1.0
24102901,cl_character,2,test,14,,0,,2900.3,0.0,1.0
24102901,cl_character,2,test,15,,0,,2902.03,0.0,1.0
24102901,cl_character,2,test,16,,0,,2903.75,0.0,1.0
24102901,cl_character,2,test,17,,0,,2905.48,0.0,1.0
24102901,cl_character,2,test,18,,1,0.448,2907.2,1.0,1.0
24102901,cl_character,2,test,19,,0,,2908.93,0.0,1.0
24102901,cl_character,2,test,20,,1,0.553,2910.65,1.0,1.0
24102901,cl_character,3,test,0,,0,,2922.6,,
24102901,cl_character,3,test,1,,1,0.5,2924.32,1.0,1.0
24102901,cl_character,3,test,2,,0,,2926.04,0.0,1.0
24102901,cl_character,3,test,3,,0,,2927.78,0.0,1.0
24102901,cl_character,3,test,4,,0,,2929.5,0.0,1.0
24102901,cl_character,3,test,5,,0,,2931.22,0.0,1.0
24102901,cl_character,3,test,6,,0,,2932.95,0.0,1.0
24102901,cl_character,3,test,7,,1,0.603,2934.67,1.0,1.0
24102901,cl_character,3,test,8,,0,,2936.4,0.0,1.0
24102901,cl_character,3,test,9,,0,,2938.13,0.0,1.0
24102901,cl_character,3,test,10,,0,,2939.86,0.0,1.0
24102901,cl_character,3,test,11,,0,,2941.59,0.0,1.0
24102901,cl_character,3,test,12,,0,,2943.32,0.0,1.0
24102901,cl_character,3,test,13,,1,0.731,2945.04,1.0,1.0
24102901,cl_character,3,test,14,,0,,2946.77,0.0,1.0
24102901,cl_character,3,test,15,,0,,2948.5,0.0,1.0
24102901,cl_character,3,test,16,,0,,2950.23,0.0,1.0
24102901,cl_character,3,test,17,,0,,2951.95,0.0,1.0
24102901,cl_character,3,test,18,,1,0.463,2953.68,1.0,1.0
24102901,cl_character,3,test,19,,0,,2955.4,0.0,1.0
24102901,cl_character,3,test,20,,0,,2957.13,0.0,1.0
24102901,cl_character,4,test,0,,0,,2965.6,,
24102901,cl_character,4,test,1,,0,,2967.32,0.0,1.0
24102901,cl_character,4,test,2,,0,,2969.04,0.0,1.0
24102901,cl_character,4,test,3,,0,,2970.77,0.0,1.0
24102901,cl_character,4,test,4,,0,,2972.51,0.0,1.0
24102901,cl_character,4,test,5,,0,,2974.24,0.0,1.0
24102901,cl_character,4,test,6,,0,,2975.97,0.0,1.0
24102901,cl_character,4,test,7,,0,,2977.7,0.0,1.0
24102901,cl_character,4,test,8,,0,,2979.43,0.0,1.0
24102901,cl_character,4,test,9,,0,,2981.16,0.0,1.0
24102901,cl_character,4,test,10,,0,,2982.89,0.0,1.0
24102901,cl_character,4,test,11,,0,,2984.62,0.0,1.0
24102901,cl_character,4,test,12,,0,,2986.34,0.0,1.0
24102901,cl_character,4,test,13,,0,,2988.07,0.0,1.0
24102901,cl_character,4,test,14,,1,0.575,2989.79,1.0,1.0
24102901,cl_character,4,test,15,,0,,2991.52,0.0,1.0
24102901,cl_character,4,test,16,,0,,2993.25,0.0,1.0
24102901,cl_character,4,test,17,,0,,2994.99,0.0,1.0
24102901,cl_character,4,test,18,,0,,2996.71,0.0,1.0
24102901,cl_character,4,test,19,,0,,2998.43,0.0,1.0
24102901,cl_character,4,test,20,,0,,3000.16,0.0,1.0
24102901,cl_character,5,test,0,,0,,3010.08,,
24102901,cl_character,5,test,1,,0,,3011.81,0.0,1.0
24102901,cl_character,5,test,2,,0,,3013.53,0.0,1.0
24102901,cl_character,5,test,3,,0,,3015.26,0.0,1.0
24102901,cl_character,5,test,4,,1,0.673,3016.98,1.0,1.0
24102901,cl_character,5,test,5,,0,,3018.7,0.0,1.0
24102901,cl_character,5,test,6,,0,,3020.43,0.0,1.0
24102901,cl_character,5,test,7,,0,,3022.15,0.0,1.0
24102901,cl_character,5,test,8,,0,,3023.88,0.0,1.0
24102901,cl_character,5,test,9,,0,,3025.6,0.0,1.0
24102901,cl_character,5,test,10,,1,0.773,3027.32,1.0,1.0
24102901,cl_character,5,test,11,,0,,3029.04,0.0,1.0
24102901,cl_character,5,test,12,,0,,3030.77,0.0,1.0
24102901,cl_character,5,test,13,,0,,3032.5,0.0,1.0
24102901,cl_character,5,test,14,,0,,3034.22,0.0,1.0
24102901,cl_character,5,test,15,,1,0.609,3035.95,1.0,1.0
24102901,cl_character,5,test,16,,0,,3037.68,0.0,1.0
24102901,cl_character,5,test,17,,1,0.683,3039.4,1.0,1.0
24102901,cl_character,5,test,18,,0,,3041.13,0.0,1.0
24102901,cl_character,5,test,19,,0,,3042.86,0.0,1.0
24102901,cl_character,5,test,20,,1,0.614,3044.58,1.0,1.0
24102901,cl_character,6,test,0,,0,,3054.47,,
24102901,cl_character,6,test,1,,0,,3056.2,0.0,1.0
24102901,cl_character,6,test,2,,1,0.562,3057.92,1.0,1.0
24102901,cl_character,6,test,3,,0,,3059.65,0.0,1.0
24102901,cl_character,6,test,4,,0,,3061.37,0.0,1.0
24102901,cl_character,6,test,5,,0,,3063.1,0.0,1.0
24102901,cl_character,6,test,6,,0,,3064.82,0.0,1.0
24102901,cl_character,6,test,7,,0,,3066.55,0.0,1.0
24102901,cl_character,6,test,8,,0,,3068.28,0.0,1.0
24102901,cl_character,6,test,9,,0,,3070.0,0.0,1.0
24102901,cl_character,6,test,10,,0,,3071.73,0.0,1.0
24102901,cl_character,6,test,11,,0,,3073.46,0.0,1.0
24102901,cl_character,6,test,12,,0,,3075.19,0.0,1.0
24102901,cl_character,6,test,13,,0,,3076.91,0.0,1.0
24102901,cl_character,6,test,14,,0,,3078.64,0.0,1.0
24102901,cl_character,6,test,15,,0,,3080.37,0.0,1.0
24102901,cl_character,6,test,16,,0,,3082.09,0.0,1.0
24102901,cl_character,6,test,17,,0,,3083.81,0.0,1.0
24102901,cl_character,6,test,18,,0,,3085.54,0.0,1.0
24102901,cl_character,6,test,19,,0,,3087.27,0.0,1.0
24102901,cl_character,6,test,20,,0,,3089.01,0.0,1.0
24102901,cl_character,7,test,0,,0,,3100.2,,
24102901,cl_character,7,test,1,,0,,3101.92,0.0,1.0
24102901,cl_character,7,test,2,,0,,3103.65,0.0,1.0
24102901,cl_character,7,test,3,,0,,3105.38,0.0,1.0
24102901,cl_character,7,test,4,,0,,3107.1,0.0,1.0
24102901,cl_character,7,test,5,,0,,3108.83,0.0,1.0
24102901,cl_character,7,test,6,,0,,3110.55,0.0,1.0
24102901,cl_character,7,test,7,,0,,3112.28,0.0,1.0
24102901,cl_character,7,test,8,,0,,3114.0,0.0,1.0
24102901,cl_character,7,test,9,,0,,3115.72,0.0,1.0
24102901,cl_character,7,test,10,,0,,3117.45,0.0,1.0
24102901,cl_character,7,test,11,,0,,3119.17,0.0,1.0
24102901,cl_character,7,test,12,,0,,3120.9,0.0,1.0
24102901,cl_character,7,test,13,,0,,3122.62,0.0,1.0
24102901,cl_character,7,test,14,,0,,3124.35,0.0,1.0
24102901,cl_character,7,test,15,,0,,3126.07,0.0,1.0
24102901,cl_character,7,test,16,,0,,3127.79,0.0,1.0
24102901,cl_character,7,test,17,,0,,3129.52,0.0,1.0
24102901,cl_character,7,test,18,,0,,3131.25,0.0,1.0
24102901,cl_character,7,test,19,,0,,3132.98,0.0,1.0
24102901,cl_character,7,test,20,,0,,3134.7,0.0,1.0
24102901,cl_character,8,test,0,,0,,3142.07,,
24102901,cl_character,8,test,1,,0,,3143.8,0.0,1.0
24102901,cl_character,8,test,2,,0,,3145.52,0.0,1.0
24102901,cl_character,8,test,3,,0,,3147.25,0.0,1.0
24102901,cl_character,8,test,4,,0,,3148.97,0.0,1.0
24102901,cl_character,8,test,5,,0,,3150.7,0.0,1.0
24102901,cl_character,8,test,6,,0,,3152.42,0.0,1.0
24102901,cl_character,8,test,7,,0,,3154.15,0.0,1.0
24102901,cl_character,8,test,8,,0,,3155.87,0.0,1.0
24102901,cl_character,8,test,9,,0,,3157.6,0.0,1.0
24102901,cl_character,8,test,10,,0,,3159.33,0.0,1.0
24102901,cl_character,8,test,11,,0,,3161.05,0.0,1.0
24102901,cl_character,8,test,12,,0,,3162.78,0.0,1.0
24102901,cl_character,8,test,13,,0,,3164.51,0.0,1.0
24102901,cl_character,8,test,14,,0,,3166.23,0.0,1.0
24102901,cl_character,8,test,15,,0,,3167.95,1.0,0.0
24102901,cl_character,8,test,16,,0,,3169.68,0.0,1.0
24102901,cl_character,8,test,17,,0,,3171.4,0.0,1.0
24102901,cl_character,8,test,18,,0,,3173.13,0.0,1.0
24102901,cl_character,8,test,19,,0,,3174.85,0.0,1.0
24102901,cl_character,8,test,20,,0,,3176.58,0.0,1.0
24102901,cl_character,9,test,0,,0,,3184.09,,
24102901,cl_character,9,test,1,,0,,3185.83,0.0,1.0
24102901,cl_character,9,test,2,,0,,3187.55,0.0,1.0
24102901,cl_character,9,test,3,,0,,3189.28,0.0,1.0
24102901,cl_character,9,test,4,,0,,3191.0,0.0,1.0
24102901,cl_character,9,test,5,,0,,3192.73,0.0,1.0
24102901,cl_character,9,test,6,,0,,3194.45,0.0,1.0
24102901,cl_character,9,test,7,,0,,3196.18,0.0,1.0
24102901,cl_character,9,test,8,,0,,3197.9,0.0,1.0
24102901,cl_character,9,test,9,,0,,3199.63,0.0,1.0
24102901,cl_character,9,test,10,,0,,3201.35,0.0,1.0
24102901,cl_character,9,test,11,,0,,3203.08,0.0,1.0
24102901,cl_character,9,test,12,,0,,3204.8,0.0,1.0
24102901,cl_character,9,test,13,,0,,3206.52,0.0,1.0
24102901,cl_character,9,test,14,,0,,3208.25,0.0,1.0
24102901,cl_character,9,test,15,,0,,3209.97,0.0,1.0
24102901,cl_character,9,test,16,,0,,3211.7,0.0,1.0
24102901,cl_character,9,test,17,,0,,3213.42,0.0,1.0
24102901,cl_character,9,test,18,,0,,3215.15,0.0,1.0
24102901,cl_character,9,test,19,,0,,3216.87,0.0,1.0
24102901,cl_character,9,test,20,,0,,3218.6,0.0,1.0
24102901,cl_character,10,test,0,,0,,3226.74,,
24102901,cl_character,10,test,1,,0,,3228.47,0.0,1.0
24102901,cl_character,10,test,2,,0,,3230.19,0.0,1.0
24102901,cl_character,10,test,3,,0,,3231.92,0.0,1.0
24102901,cl_character,10,test,4,,0,,3233.66,0.0,1.0
24102901,cl_character,10,test,5,,0,,3235.38,0.0,1.0
24102901,cl_character,10,test,6,,0,,3237.11,0.0,1.0
24102901,cl_character,10,test,7,,0,,3238.83,0.0,1.0
24102901,cl_character,10,test,8,,0,,3240.56,0.0,1.0
24102901,cl_character,10,test,9,,0,,3242.29,0.0,1.0
24102901,cl_character,10,test,10,,0,,3244.01,0.0,1.0
24102901,cl_character,10,test,11,,0,,3245.74,0.0,1.0
24102901,cl_character,10,test,12,,0,,3247.46,0.0,1.0
24102901,cl_character,10,test,13,,0,,3249.19,0.0,1.0
24102901,cl_character,10,test,14,,0,,3250.91,0.0,1.0
24102901,cl_character,10,test,15,,0,,3252.63,0.0,1.0
24102901,cl_character,10,test,16,,0,,3254.36,0.0,1.0
24102901,cl_character,10,test,17,,0,,3256.09,0.0,1.0
24102901,cl_character,10,test,18,,0,,3257.81,0.0,1.0
24102901,cl_character,10,test,19,,0,,3259.54,0.0,1.0
24102901,cl_character,10,test,20,,0,,3261.26,0.0,1.0
24102901,ed_vegetables,1,test,0,assets\ed_vegetables\artichoke_1.png,0,,3330.19,,
24102901,ed_vegetables,1,test,1,assets\ed_vegetables\corn_1.png,0,,3331.96,0.0,1.0
24102901,ed_vegetables,1,test,2,assets\ed_vegetables\artichoke_2.png,0,,3333.72,0.0,1.0
24102901,ed_vegetables,1,test,3,assets\ed_vegetables\cauliflower_2.png,0,,3335.48,0.0,1.0
24102901,ed_vegetables,1,test,4,assets\ed_vegetables\jalapeno_3.png,0,,3337.24,0.0,1.0
24102901,ed_vegetables,1,test,5,assets\ed_vegetables\green_beans_3.png,0,,3339.01,0.0,1.0
24102901,ed_vegetables,1,test,6,assets\ed_vegetables\scallion_3.png,0,,3340.77,0.0,1.0
24102901,ed_vegetables,1,test,7,assets\ed_vegetables\arugula_1.png,0,,3342.53,0.0,1.0
24102901,ed_vegetables,1,test,8,assets\ed_vegetables\scallion_2.png,0,,3344.28,0.0,1.0
24102901,ed_vegetables,1,test,9,assets\ed_vegetables\green_beans_2.png,0,,3346.05,0.0,1.0
24102901,ed_vegetables,1,test,10,assets\ed_vegetables\radish_1.png,0,,3347.8,0.0,1.0
24102901,ed_vegetables,1,test,11,assets\ed_vegetables\beet_2.png,0,,3349.55,0.0,1.0
24102901,ed_vegetables,1,test,12,assets\ed_vegetables\beet_2.png,1,0.836,3351.3,1.0,1.0
24102901,ed_vegetables,1,test,13,assets\ed_vegetables\cucumber_2.png,0,,3353.1,0.0,1.0
24102901,ed_vegetables,1,test,14,assets\ed_vegetables\onion_1.png,0,,3354.84,0.0,1.0
24102901,ed_vegetables,1,test,15,assets\ed_vegetables\brussels_sprouts_3.png,0,,3356.6,0.0,1.0
24102901,ed_vegetables,1,test,16,assets\ed_vegetables\leek_1.png,0,,3358.73,0.0,1.0
24102901,ed_vegetables,1,test,17,assets\ed_vegetables\leek_1.png,1,0.594,3360.71,1.0,1.0
24102901,ed_vegetables,1,test,18,assets\ed_vegetables\radish_3.png,0,,3362.46,0.0,1.0
24102901,ed_vegetables,1,test,19,assets\ed_vegetables\green_beans_1.png,0,,3364.21,0.0,1.0
24102901,ed_vegetables,1,test,20,assets\ed_vegetables\green_beans_1.png,1,0.443,3365.95,1.0,1.0
24102901,ed_vegetables,2,test,0,assets\ed_vegetables\cauliflower_1.png,0,,3375.06,,
24102901,ed_vegetables,2,test,1,assets\ed_vegetables\chive_3.png,0,,3376.81,0.0,1.0
24102901,ed_vegetables,2,test,2,assets\ed_vegetables\rhubarb_3.png,0,,3378.65,0.0,1.0
24102901,ed_vegetables,2,test,3,assets\ed_vegetables\beet_1.png,0,,3380.39,0.0,1.0
24102901,ed_vegetables,2,test,4,assets\ed_vegetables\chive_1.png,0,,3382.15,0.0,1.0
24102901,ed_vegetables,2,test,5,assets\ed_vegetables\cucumber_3.png,0,,3383.94,0.0,1.0
24102901,ed_vegetables,2,test,6,assets\ed_vegetables\radish_2.png,0,,3385.69,0.0,1.0
24102901,ed_vegetables,2,test,7,assets\ed_vegetables\bok_choy_2.png,0,,3387.43,0.0,1.0
24102901,ed_vegetables,2,test,8,assets\ed_vegetables\cucumber_1.png,0,,3389.23,0.0,1.0
24102901,ed_vegetables,2,test,9,assets\ed_vegetables\brussels_sprouts_1.png,0,,3390.99,0.0,1.0
24102901,ed_vegetables,2,test,10,assets\ed_vegetables\okra_3.png,0,,3392.82,0.0,1.0
24102901,ed_vegetables,2,test,11,assets\ed_vegetables\cauliflower_3.png,0,,3394.58,0.0,1.0
24102901,ed_vegetables,2,test,12,assets\ed_vegetables\corn_3.png,0,,3396.34,0.0,1.0
24102901,ed_vegetables,2,test,13,assets\ed_vegetables\leek_3.png,0,,3398.08,0.0,1.0
24102901,ed_vegetables,2,test,14,assets\ed_vegetables\rhubarb_1.png,0,,3399.83,0.0,1.0
24102901,ed_vegetables,2,test,15,assets\ed_vegetables\beet_3.png,0,,3401.57,0.0,1.0
24102901,ed_vegetables,2,test,16,assets\ed_vegetables\chive_2.png,0,,3403.31,0.0,1.0
24102901,ed_vegetables,2,test,17,assets\ed_vegetables\arugula_3.png,0,,3405.07,0.0,1.0
24102901,ed_vegetables,2,test,18,assets\ed_vegetables\gourd_3.png,0,,3406.83,0.0,1.0
24102901,ed_vegetables,2,test,19,assets\ed_vegetables\bell_pepper_3.png,0,,3408.56,0.0,1.0
24102901,ed_vegetables,2,test,20,assets\ed_vegetables\scallion_3.png,0,,3410.3,0.0,1.0
24102901,ed_vegetables,3,test,0,assets\ed_vegetables\scallion_2.png,0,,3418.7,,
24102901,ed_vegetables,3,test,1,assets\ed_vegetables\gourd_1.png,0,,3420.73,0.0,1.0
24102901,ed_vegetables,3,test,2,assets\ed_vegetables\gourd_1.png,1,0.824,3422.68,1.0,1.0
24102901,ed_vegetables,3,test,3,assets\ed_vegetables\rhubarb_2.png,0,,3424.43,0.0,1.0
24102901,ed_vegetables,3,test,4,assets\ed_vegetables\rhubarb_2.png,1,0.726,3426.17,1.0,1.0
24102901,ed_vegetables,3,test,5,assets\ed_vegetables\artichoke_3.png,0,,3427.91,0.0,1.0
24102901,ed_vegetables,3,test,6,assets\ed_vegetables\brussels_sprouts_2.png,0,,3429.67,0.0,1.0
24102901,ed_vegetables,3,test,7,assets\ed_vegetables\sprouts_1.png,0,,3431.43,0.0,1.0
24102901,ed_vegetables,3,test,8,assets\ed_vegetables\onion_3.png,0,,3433.21,0.0,1.0
24102901,ed_vegetables,3,test,9,assets\ed_vegetables\leek_2.png,0,,3434.95,0.0,1.0
24102901,ed_vegetables,3,test,10,assets\ed_vegetables\jalapeno_3.png,0,,3436.67,0.0,1.0
24102901,ed_vegetables,3,test,11,assets\ed_vegetables\green_beans_2.png,0,,3438.42,0.0,1.0
24102901,ed_vegetables,3,test,12,assets\ed_vegetables\arugula_1.png,0,,3440.16,0.0,1.0
24102901,ed_vegetables,3,test,13,assets\ed_vegetables\chive_3.png,0,,3441.92,0.0,1.0
24102901,ed_vegetables,3,test,14,assets\ed_vegetables\sprouts_2.png,0,,3443.68,0.0,1.0
24102901,ed_vegetables,3,test,15,assets\ed_vegetables\artichoke_2.png,0,,3445.42,0.0,1.0
24102901,ed_vegetables,3,test,16,assets\ed_vegetables\arugula_2.png,0,,3447.18,0.0,1.0
24102901,ed_vegetables,3,test,17,assets\ed_vegetables\arugula_2.png,1,0.552,3448.92,1.0,1.0
24102901,ed_vegetables,3,test,18,assets\ed_vegetables\bell_pepper_2.png,0,,3450.67,0.0,1.0
24102901,ed_vegetables,3,test,19,assets\ed_vegetables\corn_1.png,0,,3452.41,0.0,1.0
24102901,ed_vegetables,3,test,20,assets\ed_vegetables\leek_1.png,0,,3454.49,0.0,1.0
24102901,ed_vegetables,4,test,0,assets\ed_vegetables\bok_choy_1.png,0,,3464.1,,
24102901,ed_vegetables,4,test,1,assets\ed_vegetables\green_beans_3.png,0,,3465.83,0.0,1.0
24102901,ed_vegetables,4,test,2,assets\ed_vegetables\cucumber_3.png,0,,3467.6,0.0,1.0
24102901,ed_vegetables,4,test,3,assets\ed_vegetables\sprouts_3.png,0,,3469.35,0.0,1.0
24102901,ed_vegetables,4,test,4,assets\ed_vegetables\rhubarb_3.png,0,,3471.16,0.0,1.0
24102901,ed_vegetables,4,test,5,assets\ed_vegetables\rhubarb_3.png,1,0.702,3472.97,1.0,1.0
24102901,ed_vegetables,4,test,6,assets\ed_vegetables\gourd_2.png,0,,3474.73,0.0,1.0
24102901,ed_vegetables,4,test,7,assets\ed_vegetables\cauliflower_3.png,0,,3476.47,0.0,1.0
24102901,ed_vegetables,4,test,8,assets\ed_vegetables\onion_2.png,0,,3478.61,0.0,1.0
24102901,ed_vegetables,4,test,9,assets\ed_vegetables\okra_1.png,0,,3480.54,0.0,1.0
24102901,ed_vegetables,4,test,10,assets\ed_vegetables\cauliflower_1.png,0,,3482.28,0.0,1.0
24102901,ed_vegetables,4,test,11,assets\ed_vegetables\cauliflower_1.png,1,0.703,3484.02,1.0,1.0
24102901,ed_vegetables,4,test,12,assets\ed_vegetables\beet_1.png,0,,3485.77,0.0,1.0
24102901,ed_vegetables,4,test,13,assets\ed_vegetables\gourd_3.png,0,,3487.53,0.0,1.0
24102901,ed_vegetables,4,test,14,assets\ed_vegetables\gourd_3.png,1,0.824,3489.28,1.0,1.0
24102901,ed_vegetables,4,test,15,assets\ed_vegetables\jalapeno_2.png,0,,3491.03,0.0,1.0
24102901,ed_vegetables,4,test,16,assets\ed_vegetables\arugula_3.png,0,,3492.77,0.0,1.0
24102901,ed_vegetables,4,test,17,assets\ed_vegetables\gourd_1.png,0,,3494.72,0.0,1.0
24102901,ed_vegetables,4,test,18,assets\ed_vegetables\corn_3.png,0,,3496.47,0.0,1.0
24102901,ed_vegetables,4,test,19,assets\ed_vegetables\beet_3.png,0,,3498.19,0.0,1.0
24102901,ed_vegetables,4,test,20,assets\ed_vegetables\corn_2.png,0,,3499.95,0.0,1.0
24102901,ed_vegetables,5,test,0,assets\ed_vegetables\sprouts_1.png,0,,3507.6,,
24102901,ed_vegetables,5,test,1,assets\ed_vegetables\bok_choy_2.png,0,,3509.32,0.0,1.0
24102901,ed_vegetables,5,test,2,assets\ed_vegetables\rhubarb_2.png,0,,3511.06,0.0,1.0
24102901,ed_vegetables,5,test,3,assets\ed_vegetables\chive_2.png,0,,3512.79,0.0,1.0
24102901,ed_vegetables,5,test,4,assets\ed_vegetables\brussels_sprouts_1.png,0,,3514.52,0.0,1.0
24102901,ed_vegetables,5,test,5,assets\ed_vegetables\rhubarb_1.png,0,,3516.26,0.0,1.0
24102901,ed_vegetables,5,test,6,assets\ed_vegetables\cucumber_1.png,0,,3518.03,0.0,1.0
24102901,ed_vegetables,5,test,7,assets\ed_vegetables\scallion_2.png,0,,3519.76,0.0,1.0
24102901,ed_vegetables,5,test,8,assets\ed_vegetables\scallion_3.png,0,,3521.5,0.0,1.0
24102901,ed_vegetables,5,test,9,assets\ed_vegetables\onion_1.png,0,,3523.23,0.0,1.0
24102901,ed_vegetables,5,test,10,assets\ed_vegetables\onion_1.png,1,0.446,3524.97,1.0,1.0
24102901,ed_vegetables,5,test,11,assets\ed_vegetables\brussels_sprouts_3.png,0,,3526.71,0.0,1.0
24102901,ed_vegetables,5,test,12,assets\ed_vegetables\jalapeno_1.png,0,,3528.47,0.0,1.0
24102901,ed_vegetables,5,test,13,assets\ed_vegetables\okra_3.png,0,,3530.3,0.0,1.0
24102901,ed_vegetables,5,test,14,assets\ed_vegetables\arugula_2.png,0,,3532.04,0.0,1.0
24102901,ed_vegetables,5,test,15,assets\ed_vegetables\scallion_1.png,0,,3533.78,0.0,1.0
24102901,ed_vegetables,5,test,16,assets\ed_vegetables\scallion_1.png,1,0.512,3535.52,1.0,1.0
24102901,ed_vegetables,5,test,17,assets\ed_vegetables\radish_1.png,0,,3537.25,0.0,1.0
24102901,ed_vegetables,5,test,18,assets\ed_vegetables\artichoke_2.png,0,,3538.99,0.0,1.0
24102901,ed_vegetables,5,test,19,assets\ed_vegetables\brussels_sprouts_2.png,0,,3540.74,0.0,1.0
24102901,ed_vegetables,5,test,20,assets\ed_vegetables\radish_3.png,0,,3542.48,0.0,1.0
24102901,ed_vegetables,6,test,0,assets\ed_vegetables\cucumber_2.png,0,,3551.13,,
24102901,ed_vegetables,6,test,1,assets\ed_vegetables\bell_pepper_2.png,0,,3552.87,0.0,1.0
24102901,ed_vegetables,6,test,2,assets\ed_vegetables\cauliflower_3.png,0,,3554.62,0.0,1.0
24102901,ed_vegetables,6,test,3,assets\ed_vegetables\radish_2.png,0,,3556.35,0.0,1.0
24102901,ed_vegetables,6,test,4,assets\ed_vegetables\radish_2.png,1,0.825,3558.08,1.0,1.0
24102901,ed_vegetables,6,test,5,assets\ed_vegetables\artichoke_1.png,0,,3559.85,0.0,1.0
24102901,ed_vegetables,6,test,6,assets\ed_vegetables\corn_1.png,0,,3561.59,0.0,1.0
24102901,ed_vegetables,6,test,7,assets\ed_vegetables\cauliflower_2.png,0,,3563.33,0.0,1.0
24102901,ed_vegetables,6,test,8,assets\ed_vegetables\onion_2.png,0,,3565.44,0.0,1.0
24102901,ed_vegetables,6,test,9,assets\ed_vegetables\green_beans_2.png,0,,3567.19,0.0,1.0
24102901,ed_vegetables,6,test,10,assets\ed_vegetables\okra_1.png,0,,3569.08,0.0,1.0
24102901,ed_vegetables,6,test,11,assets\ed_vegetables\green_beans_3.png,0,,3570.82,0.0,1.0
24102901,ed_vegetables,6,test,12,assets\ed_vegetables\sprouts_2.png,0,,3572.56,0.0,1.0
24102901,ed_vegetables,6,test,13,assets\ed_vegetables\beet_3.png,0,,3574.29,0.0,1.0
24102901,ed_vegetables,6,test,14,assets\ed_vegetables\arugula_1.png,0,,3576.03,0.0,1.0
24102901,ed_vegetables,6,test,15,assets\ed_vegetables\artichoke_3.png,0,,3577.76,0.0,1.0
24102901,ed_vegetables,6,test,16,assets\ed_vegetables\green_beans_1.png,0,,3579.5,0.0,1.0
24102901,ed_vegetables,6,test,17,assets\ed_vegetables\sprouts_1.png,0,,3581.25,0.0,1.0
24102901,ed_vegetables,6,test,18,assets\ed_vegetables\leek_3.png,0,,3582.98,0.0,1.0
24102901,ed_vegetables,6,test,19,assets\ed_vegetables\gourd_3.png,0,,3584.72,0.0,1.0
24102901,ed_vegetables,6,test,20,assets\ed_vegetables\bok_choy_1.png,0,,3586.46,0.0,1.0
24102901,ed_vegetables,7,test,0,assets\ed_vegetables\cucumber_3.png,0,,3596.55,,
24102901,ed_vegetables,7,test,1,assets\ed_vegetables\chive_3.png,0,,3598.3,0.0,1.0
24102901,ed_vegetables,7,test,2,assets\ed_vegetables\gourd_1.png,0,,3600.32,0.0,1.0
24102901,ed_vegetables,7,test,3,assets\ed_vegetables\rhubarb_1.png,0,,3602.06,0.0,1.0
24102901,ed_vegetables,7,test,4,assets\ed_vegetables\okra_3.png,0,,3603.88,0.0,1.0
24102901,ed_vegetables,7,test,5,assets\ed_vegetables\arugula_3.png,0,,3605.62,0.0,1.0
24102901,ed_vegetables,7,test,6,assets\ed_vegetables\corn_3.png,0,,3607.37,0.0,1.0
24102901,ed_vegetables,7,test,7,assets\ed_vegetables\scallion_2.png,0,,3609.1,0.0,1.0
24102901,ed_vegetables,7,test,8,assets\ed_vegetables\jalapeno_3.png,0,,3610.83,0.0,1.0
24102901,ed_vegetables,7,test,9,assets\ed_vegetables\scallion_1.png,0,,3612.57,0.0,1.0
24102901,ed_vegetables,7,test,10,assets\ed_vegetables\bok_choy_2.png,0,,3614.3,0.0,1.0
24102901,ed_vegetables,7,test,11,assets\ed_vegetables\brussels_sprouts_3.png,0,,3616.04,0.0,1.0
24102901,ed_vegetables,7,test,12,assets\ed_vegetables\leek_1.png,0,,3618.12,0.0,1.0
24102901,ed_vegetables,7,test,13,assets\ed_vegetables\bell_pepper_1.png,0,,3619.87,0.0,1.0
24102901,ed_vegetables,7,test,14,assets\ed_vegetables\chive_1.png,0,,3621.61,0.0,1.0
24102901,ed_vegetables,7,test,15,assets\ed_vegetables\jalapeno_1.png,0,,3623.34,0.0,1.0
24102901,ed_vegetables,7,test,16,assets\ed_vegetables\brussels_sprouts_2.png,0,,3625.09,0.0,1.0
24102901,ed_vegetables,7,test,17,assets\ed_vegetables\bell_pepper_2.png,0,,3626.82,0.0,1.0
24102901,ed_vegetables,7,test,18,assets\ed_vegetables\onion_3.png,0,,3628.58,0.0,1.0
24102901,ed_vegetables,7,test,19,assets\ed_vegetables\radish_3.png,0,,3630.32,0.0,1.0
24102901,ed_vegetables,7,test,20,assets\ed_vegetables\okra_1.png,0,,3632.21,0.0,1.0
