subject,condition,block,procedure,trial,item,response,RT,time,correct,accuracy
24102802,cl_animals,1,test,0,assets\cl_animals\animals_55.png,0,,97.53,,
24102802,cl_animals,1,test,1,assets\cl_animals\animals_38.png,0,,99.26,0.0,1.0
24102802,cl_animals,1,test,2,assets\cl_animals\animals_82.png,0,,100.99,0.0,1.0
24102802,cl_animals,1,test,3,assets\cl_animals\animals_21.png,0,,102.72,0.0,1.0
24102802,cl_animals,1,test,4,assets\cl_animals\animals_33.png,0,,104.45,0.0,1.0
24102802,cl_animals,1,test,5,assets\cl_animals\animals_16.png,0,,106.18,0.0,1.0
24102802,cl_animals,1,test,6,assets\cl_animals\animals_72.png,0,,107.91,0.0,1.0
24102802,cl_animals,1,test,7,assets\cl_animals\animals_44.png,0,,109.63,0.0,1.0
24102802,cl_animals,1,test,8,assets\cl_animals\animals_44.png,0,,111.36,1.0,0.0
24102802,cl_animals,1,test,9,assets\cl_animals\animals_36.png,0,,113.09,0.0,1.0
24102802,cl_animals,1,test,10,assets\cl_animals\animals_74.png,0,,114.82,0.0,1.0
24102802,cl_animals,1,test,11,assets\cl_animals\animals_60.png,0,,116.55,0.0,1.0
24102802,cl_animals,1,test,12,assets\cl_animals\animals_58.png,0,,118.29,0.0,1.0
24102802,cl_animals,1,test,13,assets\cl_animals\animals_58.png,0,,120.01,1.0,0.0
24102802,cl_animals,1,test,14,assets\cl_animals\animals_5.png,0,,121.74,0.0,1.0
24102802,cl_animals,1,test,15,assets\cl_animals\animals_54.png,0,,123.48,0.0,1.0
24102802,cl_animals,1,test,16,assets\cl_animals\animals_35.png,0,,125.21,0.0,1.0
24102802,cl_animals,1,test,17,assets\cl_animals\animals_81.png,0,,126.93,0.0,1.0
24102802,cl_animals,1,test,18,assets\cl_animals\animals_37.png,0,,128.66,0.0,1.0
24102802,cl_animals,1,test,19,assets\cl_animals\animals_17.png,0,,130.39,0.0,1.0
24102802,cl_animals,1,test,20,assets\cl_animals\animals_80.png,0,,132.13,0.0,1.0
24102802,cl_animals,2,test,0,assets\cl_animals\animals_76.png,0,,140.81,,
24102802,cl_animals,2,test,1,assets\cl_animals\animals_40.png,0,,142.54,0.0,1.0
24102802,cl_animals,2,test,2,assets\cl_animals\animals_69.png,0,,144.26,0.0,1.0
24102802,cl_animals,2,test,3,assets\cl_animals\animals_1.png,0,,145.99,0.0,1.0
24102802,cl_animals,2,test,4,assets\cl_animals\animals_22.png,0,,147.72,0.0,1.0
24102802,cl_animals,2,test,5,assets\cl_animals\animals_25.png,0,,149.45,0.0,1.0
24102802,cl_animals,2,test,6,assets\cl_animals\animals_88.png,0,,151.18,0.0,1.0
24102802,cl_animals,2,test,7,assets\cl_animals\animals_24.png,0,,152.91,0.0,1.0
24102802,cl_animals,2,test,8,assets\cl_animals\animals_26.png,0,,154.63,0.0,1.0
24102802,cl_animals,2,test,9,assets\cl_animals\animals_20.png,0,,156.36,0.0,1.0
24102802,cl_animals,2,test,10,assets\cl_animals\animals_64.png,0,,158.09,0.0,1.0
24102802,cl_animals,2,test,11,assets\cl_animals\animals_12.png,0,,159.82,0.0,1.0
24102802,cl_animals,2,test,12,assets\cl_animals\animals_52.png,0,,161.55,0.0,1.0
24102802,cl_animals,2,test,13,assets\cl_animals\animals_78.png,0,,163.28,0.0,1.0
24102802,cl_animals,2,test,14,assets\cl_animals\animals_65.png,0,,165.01,0.0,1.0
24102802,cl_animals,2,test,15,assets\cl_animals\animals_83.png,0,,166.74,0.0,1.0
24102802,cl_animals,2,test,16,assets\cl_animals\animals_31.png,0,,168.47,0.0,1.0
24102802,cl_animals,2,test,17,assets\cl_animals\animals_42.png,0,,170.2,0.0,1.0
24102802,cl_animals,2,test,18,assets\cl_animals\animals_43.png,0,,171.93,0.0,1.0
24102802,cl_animals,2,test,19,assets\cl_animals\animals_56.png,0,,173.66,0.0,1.0
24102802,cl_animals,2,test,20,assets\cl_animals\animals_19.png,0,,175.39,0.0,1.0
24102802,cl_animals,3,test,0,assets\cl_animals\animals_86.png,0,,183.07,,
24102802,cl_animals,3,test,1,assets\cl_animals\animals_60.png,0,,184.8,0.0,1.0
24102802,cl_animals,3,test,2,assets\cl_animals\animals_89.png,0,,186.53,0.0,1.0
24102802,cl_animals,3,test,3,assets\cl_animals\animals_13.png,0,,188.25,0.0,1.0
24102802,cl_animals,3,test,4,assets\cl_animals\animals_54.png,0,,189.98,0.0,1.0
24102802,cl_animals,3,test,5,assets\cl_animals\animals_54.png,0,,191.71,1.0,0.0
24102802,cl_animals,3,test,6,assets\cl_animals\animals_72.png,0,,193.44,0.0,1.0
24102802,cl_animals,3,test,7,assets\cl_animals\animals_23.png,0,,195.17,0.0,1.0
24102802,cl_animals,3,test,8,assets\cl_animals\animals_50.png,0,,196.9,0.0,1.0
24102802,cl_animals,3,test,9,assets\cl_animals\animals_50.png,0,,198.63,1.0,0.0
24102802,cl_animals,3,test,10,assets\cl_animals\animals_34.png,0,,200.36,0.0,1.0
24102802,cl_animals,3,test,11,assets\cl_animals\animals_44.png,0,,202.08,0.0,1.0
24102802,cl_animals,3,test,12,assets\cl_animals\animals_85.png,0,,203.81,0.0,1.0
24102802,cl_animals,3,test,13,assets\cl_animals\animals_40.png,0,,205.54,0.0,1.0
24102802,cl_animals,3,test,14,assets\cl_animals\animals_33.png,0,,207.27,0.0,1.0
24102802,cl_animals,3,test,15,assets\cl_animals\animals_33.png,0,,208.99,1.0,0.0
24102802,cl_animals,3,test,16,assets\cl_animals\animals_33.png,0,,210.72,1.0,0.0
24102802,cl_animals,3,test,17,assets\cl_animals\animals_5.png,0,,212.45,0.0,1.0
24102802,cl_animals,3,test,18,assets\cl_animals\animals_9.png,0,,214.18,0.0,1.0
24102802,cl_animals,3,test,19,assets\cl_animals\animals_10.png,0,,215.91,0.0,1.0
24102802,cl_animals,3,test,20,assets\cl_animals\animals_15.png,0,,217.64,0.0,1.0
24102802,cl_animals,4,test,0,assets\cl_animals\animals_41.png,0,,225.06,,
24102802,cl_animals,4,test,1,assets\cl_animals\animals_39.png,0,,226.79,0.0,1.0
24102802,cl_animals,4,test,2,assets\cl_animals\animals_8.png,0,,228.52,0.0,1.0
24102802,cl_animals,4,test,3,assets\cl_animals\animals_20.png,0,,230.24,0.0,1.0
24102802,cl_animals,4,test,4,assets\cl_animals\animals_87.png,0,,231.97,0.0,1.0
24102802,cl_animals,4,test,5,assets\cl_animals\animals_84.png,0,,233.7,0.0,1.0
24102802,cl_animals,4,test,6,assets\cl_animals\animals_49.png,0,,235.43,0.0,1.0
24102802,cl_animals,4,test,7,assets\cl_animals\animals_51.png,0,,237.15,0.0,1.0
24102802,cl_animals,4,test,8,assets\cl_animals\animals_74.png,0,,238.88,0.0,1.0
24102802,cl_animals,4,test,9,assets\cl_animals\animals_59.png,0,,240.61,0.0,1.0
24102802,cl_animals,4,test,10,assets\cl_animals\animals_55.png,0,,242.34,0.0,1.0
24102802,cl_animals,4,test,11,assets\cl_animals\animals_24.png,0,,244.07,0.0,1.0
24102802,cl_animals,4,test,12,assets\cl_animals\animals_65.png,0,,245.79,0.0,1.0
24102802,cl_animals,4,test,13,assets\cl_animals\animals_65.png,0,,247.52,1.0,0.0
24102802,cl_animals,4,test,14,assets\cl_animals\animals_67.png,0,,249.25,0.0,1.0
24102802,cl_animals,4,test,15,assets\cl_animals\animals_18.png,0,,250.98,0.0,1.0
24102802,cl_animals,4,test,16,assets\cl_animals\animals_46.png,0,,252.71,0.0,1.0
24102802,cl_animals,4,test,17,assets\cl_animals\animals_6.png,0,,254.44,0.0,1.0
24102802,cl_animals,4,test,18,assets\cl_animals\animals_6.png,0,,256.16,1.0,0.0
24102802,cl_animals,4,test,19,assets\cl_animals\animals_57.png,0,,257.89,0.0,1.0
24102802,cl_animals,4,test,20,assets\cl_animals\animals_29.png,0,,259.62,0.0,1.0
24102802,cl_animals,5,test,0,assets\cl_animals\animals_80.png,0,,265.85,,
24102802,cl_animals,5,test,1,assets\cl_animals\animals_38.png,0,,267.58,0.0,1.0
24102802,cl_animals,5,test,2,assets\cl_animals\animals_23.png,0,,269.31,0.0,1.0
24102802,cl_animals,5,test,3,assets\cl_animals\animals_12.png,0,,271.04,0.0,1.0
24102802,cl_animals,5,test,4,assets\cl_animals\animals_36.png,0,,272.77,0.0,1.0
24102802,cl_animals,5,test,5,assets\cl_animals\animals_7.png,0,,274.5,0.0,1.0
24102802,cl_animals,5,test,6,assets\cl_animals\animals_3.png,0,,276.22,0.0,1.0
24102802,cl_animals,5,test,7,assets\cl_animals\animals_14.png,0,,277.95,0.0,1.0
24102802,cl_animals,5,test,8,assets\cl_animals\animals_5.png,0,,279.68,0.0,1.0
24102802,cl_animals,5,test,9,assets\cl_animals\animals_79.png,0,,281.41,0.0,1.0
24102802,cl_animals,5,test,10,assets\cl_animals\animals_86.png,0,,283.14,0.0,1.0
24102802,cl_animals,5,test,11,assets\cl_animals\animals_48.png,0,,284.86,0.0,1.0
24102802,cl_animals,5,test,12,assets\cl_animals\animals_19.png,0,,286.59,0.0,1.0
24102802,cl_animals,5,test,13,assets\cl_animals\animals_1.png,0,,288.32,0.0,1.0
24102802,cl_animals,5,test,14,assets\cl_animals\animals_1.png,0,,290.05,1.0,0.0
24102802,cl_animals,5,test,15,assets\cl_animals\animals_8.png,0,,291.78,0.0,1.0
24102802,cl_animals,5,test,16,assets\cl_animals\animals_83.png,0,,293.51,0.0,1.0
24102802,cl_animals,5,test,17,assets\cl_animals\animals_68.png,0,,295.23,0.0,1.0
24102802,cl_animals,5,test,18,assets\cl_animals\animals_15.png,0,,296.96,0.0,1.0
24102802,cl_animals,5,test,19,assets\cl_animals\animals_53.png,0,,298.69,0.0,1.0
24102802,cl_animals,5,test,20,assets\cl_animals\animals_13.png,0,,300.41,0.0,1.0
24102802,cl_animals,6,test,0,assets\cl_animals\animals_30.png,0,,307.73,,
24102802,cl_animals,6,test,1,assets\cl_animals\animals_22.png,0,,309.46,0.0,1.0
24102802,cl_animals,6,test,2,assets\cl_animals\animals_22.png,0,,311.19,1.0,0.0
24102802,cl_animals,6,test,3,assets\cl_animals\animals_4.png,0,,312.92,0.0,1.0
24102802,cl_animals,6,test,4,assets\cl_animals\animals_51.png,0,,314.65,0.0,1.0
24102802,cl_animals,6,test,5,assets\cl_animals\animals_42.png,0,,316.37,0.0,1.0
24102802,cl_animals,6,test,6,assets\cl_animals\animals_17.png,0,,318.1,0.0,1.0
24102802,cl_animals,6,test,7,assets\cl_animals\animals_17.png,0,,319.83,1.0,0.0
24102802,cl_animals,6,test,8,assets\cl_animals\animals_20.png,0,,321.56,0.0,1.0
24102802,cl_animals,6,test,9,assets\cl_animals\animals_47.png,0,,323.28,0.0,1.0
24102802,cl_animals,6,test,10,assets\cl_animals\animals_65.png,0,,325.01,0.0,1.0
24102802,cl_animals,6,test,11,assets\cl_animals\animals_21.png,0,,326.74,0.0,1.0
24102802,cl_animals,6,test,12,assets\cl_animals\animals_50.png,0,,328.47,0.0,1.0
24102802,cl_animals,6,test,13,assets\cl_animals\animals_10.png,0,,330.2,0.0,1.0
24102802,cl_animals,6,test,14,assets\cl_animals\animals_88.png,0,,331.93,0.0,1.0
24102802,cl_animals,6,test,15,assets\cl_animals\animals_89.png,0,,333.65,0.0,1.0
24102802,cl_animals,6,test,16,assets\cl_animals\animals_89.png,0,,335.38,1.0,0.0
24102802,cl_animals,6,test,17,assets\cl_animals\animals_16.png,0,,337.11,0.0,1.0
24102802,cl_animals,6,test,18,assets\cl_animals\animals_16.png,0,,338.83,1.0,0.0
24102802,cl_animals,6,test,19,assets\cl_animals\animals_84.png,0,,340.56,0.0,1.0
24102802,cl_animals,6,test,20,assets\cl_animals\animals_84.png,0,,342.29,1.0,0.0
24102802,cl_animals,7,test,0,assets\cl_animals\animals_80.png,0,,349.47,,
24102802,cl_animals,7,test,1,assets\cl_animals\animals_9.png,0,,351.2,0.0,1.0
24102802,cl_animals,7,test,2,assets\cl_animals\animals_33.png,0,,352.93,0.0,1.0
24102802,cl_animals,7,test,3,assets\cl_animals\animals_52.png,0,,354.66,0.0,1.0
24102802,cl_animals,7,test,4,assets\cl_animals\animals_5.png,0,,356.38,0.0,1.0
24102802,cl_animals,7,test,5,assets\cl_animals\animals_74.png,0,,358.11,0.0,1.0
24102802,cl_animals,7,test,6,assets\cl_animals\animals_64.png,0,,359.84,0.0,1.0
24102802,cl_animals,7,test,7,assets\cl_animals\animals_85.png,0,,361.57,0.0,1.0
24102802,cl_animals,7,test,8,assets\cl_animals\animals_85.png,0,,363.3,1.0,0.0
24102802,cl_animals,7,test,9,assets\cl_animals\animals_31.png,0,,365.02,0.0,1.0
24102802,cl_animals,7,test,10,assets\cl_animals\animals_31.png,0,,366.75,1.0,0.0
24102802,cl_animals,7,test,11,assets\cl_animals\animals_31.png,0,,368.48,1.0,0.0
24102802,cl_animals,7,test,12,assets\cl_animals\animals_70.png,0,,370.21,0.0,1.0
24102802,cl_animals,7,test,13,assets\cl_animals\animals_59.png,0,,371.93,0.0,1.0
24102802,cl_animals,7,test,14,assets\cl_animals\animals_41.png,0,,373.66,0.0,1.0
24102802,cl_animals,7,test,15,assets\cl_animals\animals_12.png,0,,375.39,0.0,1.0
24102802,cl_animals,7,test,16,assets\cl_animals\animals_81.png,0,,377.12,0.0,1.0
24102802,cl_animals,7,test,17,assets\cl_animals\animals_90.png,0,,378.85,0.0,1.0
24102802,cl_animals,7,test,18,assets\cl_animals\animals_44.png,0,,380.57,0.0,1.0
24102802,cl_animals,7,test,19,assets\cl_animals\animals_3.png,0,,382.3,0.0,1.0
24102802,cl_animals,7,test,20,assets\cl_animals\animals_77.png,0,,384.03,0.0,1.0
24102802,cl_animals,8,test,0,assets\cl_animals\animals_61.png,0,,391.98,,
24102802,cl_animals,8,test,1,assets\cl_animals\animals_8.png,0,,393.71,0.0,1.0
24102802,cl_animals,8,test,2,assets\cl_animals\animals_82.png,0,,395.44,0.0,1.0
24102802,cl_animals,8,test,3,assets\cl_animals\animals_71.png,0,,397.17,0.0,1.0
24102802,cl_animals,8,test,4,assets\cl_animals\animals_83.png,0,,398.9,0.0,1.0
24102802,cl_animals,8,test,5,assets\cl_animals\animals_72.png,0,,400.62,0.0,1.0
24102802,cl_animals,8,test,6,assets\cl_animals\animals_56.png,0,,402.35,0.0,1.0
24102802,cl_animals,8,test,7,assets\cl_animals\animals_49.png,0,,404.08,0.0,1.0
24102802,cl_animals,8,test,8,assets\cl_animals\animals_53.png,0,,405.81,0.0,1.0
24102802,cl_animals,8,test,9,assets\cl_animals\animals_17.png,0,,407.54,0.0,1.0
24102802,cl_animals,8,test,10,assets\cl_animals\animals_76.png,0,,409.27,0.0,1.0
24102802,cl_animals,8,test,11,assets\cl_animals\animals_34.png,0,,410.99,0.0,1.0
24102802,cl_animals,8,test,12,assets\cl_animals\animals_78.png,0,,412.72,0.0,1.0
24102802,cl_animals,8,test,13,assets\cl_animals\animals_16.png,0,,414.45,0.0,1.0
24102802,cl_animals,8,test,14,assets\cl_animals\animals_30.png,0,,416.18,0.0,1.0
24102802,cl_animals,8,test,15,assets\cl_animals\animals_75.png,0,,417.91,0.0,1.0
24102802,cl_animals,8,test,16,assets\cl_animals\animals_48.png,0,,419.64,0.0,1.0
24102802,cl_animals,8,test,17,assets\cl_animals\animals_60.png,0,,421.37,0.0,1.0
24102802,cl_animals,8,test,18,assets\cl_animals\animals_1.png,0,,423.1,0.0,1.0
24102802,cl_animals,8,test,19,assets\cl_animals\animals_2.png,0,,424.83,0.0,1.0
24102802,cl_animals,8,test,20,assets\cl_animals\animals_35.png,0,,426.55,0.0,1.0
24102802,cl_animals,9,test,0,assets\cl_animals\animals_29.png,0,,433.86,,
24102802,cl_animals,9,test,1,assets\cl_animals\animals_36.png,0,,435.58,0.0,1.0
24102802,cl_animals,9,test,2,assets\cl_animals\animals_57.png,0,,437.31,0.0,1.0
24102802,cl_animals,9,test,3,assets\cl_animals\animals_57.png,0,,439.04,1.0,0.0
24102802,cl_animals,9,test,4,assets\cl_animals\animals_68.png,0,,440.77,0.0,1.0
24102802,cl_animals,9,test,5,assets\cl_animals\animals_80.png,0,,442.5,0.0,1.0
24102802,cl_animals,9,test,6,assets\cl_animals\animals_62.png,0,,444.23,0.0,1.0
24102802,cl_animals,9,test,7,assets\cl_animals\animals_62.png,0,,445.96,1.0,0.0
24102802,cl_animals,9,test,8,assets\cl_animals\animals_21.png,0,,447.68,0.0,1.0
24102802,cl_animals,9,test,9,assets\cl_animals\animals_86.png,0,,449.41,0.0,1.0
24102802,cl_animals,9,test,10,assets\cl_animals\animals_67.png,0,,451.14,0.0,1.0
24102802,cl_animals,9,test,11,assets\cl_animals\animals_6.png,0,,452.87,0.0,1.0
24102802,cl_animals,9,test,12,assets\cl_animals\animals_13.png,0,,454.59,0.0,1.0
24102802,cl_animals,9,test,13,assets\cl_animals\animals_8.png,0,,456.32,0.0,1.0
24102802,cl_animals,9,test,14,assets\cl_animals\animals_70.png,0,,458.05,0.0,1.0
24102802,cl_animals,9,test,15,assets\cl_animals\animals_70.png,0,,459.78,1.0,0.0
24102802,cl_animals,9,test,16,assets\cl_animals\animals_43.png,0,,461.51,0.0,1.0
24102802,cl_animals,9,test,17,assets\cl_animals\animals_26.png,0,,463.24,0.0,1.0
24102802,cl_animals,9,test,18,assets\cl_animals\animals_26.png,0,,464.97,1.0,0.0
24102802,cl_animals,9,test,19,assets\cl_animals\animals_73.png,0,,466.7,0.0,1.0
24102802,cl_animals,9,test,20,assets\cl_animals\animals_81.png,0,,468.42,0.0,1.0
24102802,cl_animals,10,test,0,assets\cl_animals\animals_65.png,0,,475.47,,
24102802,cl_animals,10,test,1,assets\cl_animals\animals_49.png,0,,477.2,0.0,1.0
24102802,cl_animals,10,test,2,assets\cl_animals\animals_18.png,0,,478.93,0.0,1.0
24102802,cl_animals,10,test,3,assets\cl_animals\animals_42.png,0,,480.66,0.0,1.0
24102802,cl_animals,10,test,4,assets\cl_animals\animals_42.png,0,,482.38,1.0,0.0
24102802,cl_animals,10,test,5,assets\cl_animals\animals_42.png,0,,484.11,1.0,0.0
24102802,cl_animals,10,test,6,assets\cl_animals\animals_88.png,0,,485.84,0.0,1.0
24102802,cl_animals,10,test,7,assets\cl_animals\animals_9.png,0,,487.57,0.0,1.0
24102802,cl_animals,10,test,8,assets\cl_animals\animals_41.png,0,,489.3,0.0,1.0
24102802,cl_animals,10,test,9,assets\cl_animals\animals_47.png,0,,491.03,0.0,1.0
24102802,cl_animals,10,test,10,assets\cl_animals\animals_4.png,0,,492.75,0.0,1.0
24102802,cl_animals,10,test,11,assets\cl_animals\animals_33.png,0,,494.48,0.0,1.0
24102802,cl_animals,10,test,12,assets\cl_animals\animals_79.png,0,,496.21,0.0,1.0
24102802,cl_animals,10,test,13,assets\cl_animals\animals_78.png,0,,497.94,0.0,1.0
24102802,cl_animals,10,test,14,assets\cl_animals\animals_30.png,0,,499.67,0.0,1.0
24102802,cl_animals,10,test,15,assets\cl_animals\animals_87.png,0,,501.39,0.0,1.0
24102802,cl_animals,10,test,16,assets\cl_animals\animals_87.png,0,,503.12,1.0,0.0
24102802,cl_animals,10,test,17,assets\cl_animals\animals_3.png,0,,504.85,0.0,1.0
24102802,cl_animals,10,test,18,assets\cl_animals\animals_27.png,0,,506.58,0.0,1.0
24102802,cl_animals,10,test,19,assets\cl_animals\animals_19.png,0,,508.31,0.0,1.0
24102802,cl_animals,10,test,20,assets\cl_animals\animals_90.png,0,,510.04,0.0,1.0
24102802,cl_faces,1,test,0,assets\cl_faces\faces_86.png,0,,542.57,,
24102802,cl_faces,1,test,1,assets\cl_faces\faces_15.png,0,,544.29,0.0,1.0
24102802,cl_faces,1,test,2,assets\cl_faces\faces_73.png,0,,546.02,0.0,1.0
24102802,cl_faces,1,test,3,assets\cl_faces\faces_43.png,0,,547.75,0.0,1.0
24102802,cl_faces,1,test,4,assets\cl_faces\faces_5.png,0,,549.48,0.0,1.0
24102802,cl_faces,1,test,5,assets\cl_faces\faces_59.png,0,,551.2,0.0,1.0
24102802,cl_faces,1,test,6,assets\cl_faces\faces_70.png,0,,552.93,0.0,1.0
24102802,cl_faces,1,test,7,assets\cl_faces\faces_41.png,0,,554.65,0.0,1.0
24102802,cl_faces,1,test,8,assets\cl_faces\faces_90.png,0,,556.38,0.0,1.0
24102802,cl_faces,1,test,9,assets\cl_faces\faces_90.png,0,,558.11,1.0,0.0
24102802,cl_faces,1,test,10,assets\cl_faces\faces_30.png,0,,559.83,0.0,1.0
24102802,cl_faces,1,test,11,assets\cl_faces\faces_17.png,0,,561.56,0.0,1.0
24102802,cl_faces,1,test,12,assets\cl_faces\faces_77.png,0,,563.28,0.0,1.0
24102802,cl_faces,1,test,13,assets\cl_faces\faces_37.png,0,,565.01,0.0,1.0
24102802,cl_faces,1,test,14,assets\cl_faces\faces_52.png,0,,566.73,0.0,1.0
24102802,cl_faces,1,test,15,assets\cl_faces\faces_45.png,0,,568.46,0.0,1.0
24102802,cl_faces,1,test,16,assets\cl_faces\faces_1.png,0,,570.18,0.0,1.0
24102802,cl_faces,1,test,17,assets\cl_faces\faces_54.png,0,,571.91,0.0,1.0
24102802,cl_faces,1,test,18,assets\cl_faces\faces_68.png,0,,573.65,0.0,1.0
24102802,cl_faces,1,test,19,assets\cl_faces\faces_44.png,0,,575.38,0.0,1.0
24102802,cl_faces,1,test,20,assets\cl_faces\faces_44.png,0,,577.1,1.0,0.0
24102802,cl_faces,2,test,0,assets\cl_faces\faces_4.png,0,,584.12,,
24102802,cl_faces,2,test,1,assets\cl_faces\faces_4.png,0,,585.84,1.0,0.0
24102802,cl_faces,2,test,2,assets\cl_faces\faces_21.png,0,,587.57,0.0,1.0
24102802,cl_faces,2,test,3,assets\cl_faces\faces_57.png,0,,589.3,0.0,1.0
24102802,cl_faces,2,test,4,assets\cl_faces\faces_23.png,0,,591.02,0.0,1.0
24102802,cl_faces,2,test,5,assets\cl_faces\faces_26.png,0,,592.75,0.0,1.0
24102802,cl_faces,2,test,6,assets\cl_faces\faces_35.png,0,,594.48,0.0,1.0
24102802,cl_faces,2,test,7,assets\cl_faces\faces_42.png,0,,596.21,0.0,1.0
24102802,cl_faces,2,test,8,assets\cl_faces\faces_34.png,0,,597.93,0.0,1.0
24102802,cl_faces,2,test,9,assets\cl_faces\faces_80.png,0,,599.66,0.0,1.0
24102802,cl_faces,2,test,10,assets\cl_faces\faces_29.png,0,,601.38,0.0,1.0
24102802,cl_faces,2,test,11,assets\cl_faces\faces_82.png,0,,603.11,0.0,1.0
24102802,cl_faces,2,test,12,assets\cl_faces\faces_6.png,0,,604.84,0.0,1.0
24102802,cl_faces,2,test,13,assets\cl_faces\faces_49.png,0,,606.57,0.0,1.0
24102802,cl_faces,2,test,14,assets\cl_faces\faces_48.png,0,,608.29,0.0,1.0
24102802,cl_faces,2,test,15,assets\cl_faces\faces_14.png,0,,610.02,0.0,1.0
24102802,cl_faces,2,test,16,assets\cl_faces\faces_63.png,0,,611.75,0.0,1.0
24102802,cl_faces,2,test,17,assets\cl_faces\faces_40.png,0,,613.48,0.0,1.0
24102802,cl_faces,2,test,18,assets\cl_faces\faces_81.png,0,,615.2,0.0,1.0
24102802,cl_faces,2,test,19,assets\cl_faces\faces_32.png,0,,616.93,0.0,1.0
24102802,cl_faces,2,test,20,assets\cl_faces\faces_27.png,0,,618.66,0.0,1.0
24102802,cl_faces,3,test,0,assets\cl_faces\faces_15.png,0,,624.62,,
24102802,cl_faces,3,test,1,assets\cl_faces\faces_5.png,0,,626.35,0.0,1.0
24102802,cl_faces,3,test,2,assets\cl_faces\faces_83.png,0,,628.07,0.0,1.0
24102802,cl_faces,3,test,3,assets\cl_faces\faces_58.png,0,,629.8,0.0,1.0
24102802,cl_faces,3,test,4,assets\cl_faces\faces_30.png,0,,631.53,0.0,1.0
24102802,cl_faces,3,test,5,assets\cl_faces\faces_31.png,0,,633.25,0.0,1.0
24102802,cl_faces,3,test,6,assets\cl_faces\faces_87.png,0,,634.98,0.0,1.0
24102802,cl_faces,3,test,7,assets\cl_faces\faces_37.png,0,,636.71,0.0,1.0
24102802,cl_faces,3,test,8,assets\cl_faces\faces_55.png,0,,638.44,0.0,1.0
24102802,cl_faces,3,test,9,assets\cl_faces\faces_65.png,0,,640.16,0.0,1.0
24102802,cl_faces,3,test,10,assets\cl_faces\faces_64.png,0,,641.89,0.0,1.0
24102802,cl_faces,3,test,11,assets\cl_faces\faces_16.png,0,,643.62,0.0,1.0
24102802,cl_faces,3,test,12,assets\cl_faces\faces_3.png,0,,645.34,0.0,1.0
24102802,cl_faces,3,test,13,assets\cl_faces\faces_74.png,0,,647.07,0.0,1.0
24102802,cl_faces,3,test,14,assets\cl_faces\faces_44.png,0,,648.79,0.0,1.0
24102802,cl_faces,3,test,15,assets\cl_faces\faces_11.png,0,,650.52,0.0,1.0
24102802,cl_faces,3,test,16,assets\cl_faces\faces_11.png,0,,652.25,1.0,0.0
24102802,cl_faces,3,test,17,assets\cl_faces\faces_46.png,1,0.68,653.97,0.0,0.0
24102802,cl_faces,3,test,18,assets\cl_faces\faces_79.png,0,,655.7,0.0,1.0
24102802,cl_faces,3,test,19,assets\cl_faces\faces_9.png,0,,657.43,0.0,1.0
24102802,cl_faces,3,test,20,assets\cl_faces\faces_80.png,0,,659.15,0.0,1.0
24102802,cl_faces,4,test,0,assets\cl_faces\faces_17.png,0,,665.87,,
24102802,cl_faces,4,test,1,assets\cl_faces\faces_90.png,0,,667.59,0.0,1.0
24102802,cl_faces,4,test,2,assets\cl_faces\faces_53.png,0,,669.32,0.0,1.0
24102802,cl_faces,4,test,3,assets\cl_faces\faces_73.png,0,,671.05,0.0,1.0
24102802,cl_faces,4,test,4,assets\cl_faces\faces_70.png,0,,672.78,0.0,1.0
24102802,cl_faces,4,test,5,assets\cl_faces\faces_45.png,0,,674.5,0.0,1.0
24102802,cl_faces,4,test,6,assets\cl_faces\faces_77.png,0,,676.23,0.0,1.0
24102802,cl_faces,4,test,7,assets\cl_faces\faces_62.png,0,,677.96,0.0,1.0
24102802,cl_faces,4,test,8,assets\cl_faces\faces_48.png,0,,679.68,0.0,1.0
24102802,cl_faces,4,test,9,assets\cl_faces\faces_86.png,0,,681.41,0.0,1.0
24102802,cl_faces,4,test,10,assets\cl_faces\faces_81.png,0,,683.14,0.0,1.0
24102802,cl_faces,4,test,11,assets\cl_faces\faces_41.png,0,,684.86,0.0,1.0
24102802,cl_faces,4,test,12,assets\cl_faces\faces_57.png,0,,686.59,0.0,1.0
24102802,cl_faces,4,test,13,assets\cl_faces\faces_18.png,0,,688.32,0.0,1.0
24102802,cl_faces,4,test,14,assets\cl_faces\faces_18.png,0,,690.05,1.0,0.0
24102802,cl_faces,4,test,15,assets\cl_faces\faces_5.png,0,,691.77,0.0,1.0
24102802,cl_faces,4,test,16,assets\cl_faces\faces_85.png,0,,693.5,0.0,1.0
24102802,cl_faces,4,test,17,assets\cl_faces\faces_63.png,0,,695.22,0.0,1.0
24102802,cl_faces,4,test,18,assets\cl_faces\faces_69.png,0,,696.95,0.0,1.0
24102802,cl_faces,4,test,19,assets\cl_faces\faces_84.png,0,,698.67,0.0,1.0
24102802,cl_faces,4,test,20,assets\cl_faces\faces_36.png,0,,700.41,0.0,1.0
24102802,cl_faces,5,test,0,assets\cl_faces\faces_42.png,0,,706.34,,
24102802,cl_faces,5,test,1,assets\cl_faces\faces_14.png,0,,708.07,0.0,1.0
24102802,cl_faces,5,test,2,assets\cl_faces\faces_61.png,0,,709.79,0.0,1.0
24102802,cl_faces,5,test,3,assets\cl_faces\faces_72.png,0,,711.52,0.0,1.0
24102802,cl_faces,5,test,4,assets\cl_faces\faces_21.png,0,,713.24,0.0,1.0
24102802,cl_faces,5,test,5,assets\cl_faces\faces_27.png,0,,714.97,0.0,1.0
24102802,cl_faces,5,test,6,assets\cl_faces\faces_56.png,0,,716.7,0.0,1.0
24102802,cl_faces,5,test,7,assets\cl_faces\faces_20.png,0,,718.42,0.0,1.0
24102802,cl_faces,5,test,8,assets\cl_faces\faces_59.png,0,,720.15,0.0,1.0
24102802,cl_faces,5,test,9,assets\cl_faces\faces_24.png,0,,721.88,0.0,1.0
24102802,cl_faces,5,test,10,assets\cl_faces\faces_28.png,0,,723.6,0.0,1.0
24102802,cl_faces,5,test,11,assets\cl_faces\faces_28.png,0,,725.33,1.0,0.0
24102802,cl_faces,5,test,12,assets\cl_faces\faces_87.png,0,,727.06,0.0,1.0
24102802,cl_faces,5,test,13,assets\cl_faces\faces_29.png,0,,728.78,0.0,1.0
24102802,cl_faces,5,test,14,assets\cl_faces\faces_75.png,0,,730.51,0.0,1.0
24102802,cl_faces,5,test,15,assets\cl_faces\faces_74.png,0,,732.24,0.0,1.0
24102802,cl_faces,5,test,16,assets\cl_faces\faces_53.png,0,,733.96,0.0,1.0
24102802,cl_faces,5,test,17,assets\cl_faces\faces_89.png,0,,735.69,0.0,1.0
24102802,cl_faces,5,test,18,assets\cl_faces\faces_89.png,0,,737.42,1.0,0.0
24102802,cl_faces,5,test,19,assets\cl_faces\faces_55.png,0,,739.14,0.0,1.0
24102802,cl_faces,5,test,20,assets\cl_faces\faces_46.png,0,,740.87,0.0,1.0
24102802,cl_faces,6,test,0,assets\cl_faces\faces_58.png,0,,747.3,,
24102802,cl_faces,6,test,1,assets\cl_faces\faces_9.png,0,,749.03,0.0,1.0
24102802,cl_faces,6,test,2,assets\cl_faces\faces_9.png,0,,750.75,1.0,0.0
24102802,cl_faces,6,test,3,assets\cl_faces\faces_23.png,0,,752.48,0.0,1.0
24102802,cl_faces,6,test,4,assets\cl_faces\faces_88.png,0,,754.2,0.0,1.0
24102802,cl_faces,6,test,5,assets\cl_faces\faces_70.png,0,,755.93,0.0,1.0
24102802,cl_faces,6,test,6,assets\cl_faces\faces_70.png,0,,757.66,1.0,0.0
24102802,cl_faces,6,test,7,assets\cl_faces\faces_6.png,0,,759.38,0.0,1.0
24102802,cl_faces,6,test,8,assets\cl_faces\faces_34.png,0,,761.11,0.0,1.0
24102802,cl_faces,6,test,9,assets\cl_faces\faces_32.png,0,,762.84,0.0,1.0
24102802,cl_faces,6,test,10,assets\cl_faces\faces_44.png,0,,764.56,0.0,1.0
24102802,cl_faces,6,test,11,assets\cl_faces\faces_26.png,0,,766.29,0.0,1.0
24102802,cl_faces,6,test,12,assets\cl_faces\faces_73.png,0,,768.02,0.0,1.0
24102802,cl_faces,6,test,13,assets\cl_faces\faces_12.png,0,,769.74,0.0,1.0
24102802,cl_faces,6,test,14,assets\cl_faces\faces_65.png,0,,771.47,0.0,1.0
24102802,cl_faces,6,test,15,assets\cl_faces\faces_86.png,0,,773.2,0.0,1.0
24102802,cl_faces,6,test,16,assets\cl_faces\faces_50.png,0,,774.92,0.0,1.0
24102802,cl_faces,6,test,17,assets\cl_faces\faces_62.png,0,,776.65,0.0,1.0
24102802,cl_faces,6,test,18,assets\cl_faces\faces_80.png,0,,778.38,0.0,1.0
24102802,cl_faces,6,test,19,assets\cl_faces\faces_48.png,0,,780.1,0.0,1.0
24102802,cl_faces,6,test,20,assets\cl_faces\faces_76.png,0,,781.83,0.0,1.0
24102802,cl_faces,7,test,0,assets\cl_faces\faces_2.png,0,,787.01,,
24102802,cl_faces,7,test,1,assets\cl_faces\faces_15.png,0,,788.74,0.0,1.0
24102802,cl_faces,7,test,2,assets\cl_faces\faces_82.png,0,,790.46,0.0,1.0
24102802,cl_faces,7,test,3,assets\cl_faces\faces_68.png,0,,792.19,0.0,1.0
24102802,cl_faces,7,test,4,assets\cl_faces\faces_60.png,0,,793.91,0.0,1.0
24102802,cl_faces,7,test,5,assets\cl_faces\faces_22.png,0,,795.64,0.0,1.0
24102802,cl_faces,7,test,6,assets\cl_faces\faces_22.png,0,,797.37,1.0,0.0
24102802,cl_faces,7,test,7,assets\cl_faces\faces_59.png,0,,799.1,0.0,1.0
24102802,cl_faces,7,test,8,assets\cl_faces\faces_59.png,0,,800.82,1.0,0.0
24102802,cl_faces,7,test,9,assets\cl_faces\faces_21.png,0,,802.55,0.0,1.0
24102802,cl_faces,7,test,10,assets\cl_faces\faces_1.png,0,,804.27,0.0,1.0
24102802,cl_faces,7,test,11,assets\cl_faces\faces_51.png,0,,806.0,0.0,1.0
24102802,cl_faces,7,test,12,assets\cl_faces\faces_84.png,0,,807.73,0.0,1.0
24102802,cl_faces,7,test,13,assets\cl_faces\faces_69.png,0,,809.46,0.0,1.0
24102802,cl_faces,7,test,14,assets\cl_faces\faces_78.png,0,,811.18,0.0,1.0
24102802,cl_faces,7,test,15,assets\cl_faces\faces_55.png,0,,812.91,0.0,1.0
24102802,cl_faces,7,test,16,assets\cl_faces\faces_43.png,0,,814.64,0.0,1.0
24102802,cl_faces,7,test,17,assets\cl_faces\faces_43.png,0,,816.36,1.0,0.0
24102802,cl_faces,7,test,18,assets\cl_faces\faces_23.png,0,,818.09,0.0,1.0
24102802,cl_faces,7,test,19,assets\cl_faces\faces_23.png,0,,819.81,1.0,0.0
24102802,cl_faces,7,test,20,assets\cl_faces\faces_3.png,0,,821.54,0.0,1.0
24102802,cl_faces,8,test,0,assets\cl_faces\faces_14.png,0,,827.13,,
24102802,cl_faces,8,test,1,assets\cl_faces\faces_29.png,0,,828.86,0.0,1.0
24102802,cl_faces,8,test,2,assets\cl_faces\faces_88.png,0,,830.59,0.0,1.0
24102802,cl_faces,8,test,3,assets\cl_faces\faces_33.png,1,0.182,832.31,0.0,0.0
24102802,cl_faces,8,test,4,assets\cl_faces\faces_44.png,0,,834.04,0.0,1.0
24102802,cl_faces,8,test,5,assets\cl_faces\faces_42.png,0,,835.77,0.0,1.0
24102802,cl_faces,8,test,6,assets\cl_faces\faces_31.png,0,,837.49,0.0,1.0
24102802,cl_faces,8,test,7,assets\cl_faces\faces_28.png,0,,839.22,0.0,1.0
24102802,cl_faces,8,test,8,assets\cl_faces\faces_26.png,0,,840.95,0.0,1.0
24102802,cl_faces,8,test,9,assets\cl_faces\faces_86.png,0,,842.67,0.0,1.0
24102802,cl_faces,8,test,10,assets\cl_faces\faces_6.png,0,,844.4,0.0,1.0
24102802,cl_faces,8,test,11,assets\cl_faces\faces_57.png,0,,846.13,0.0,1.0
24102802,cl_faces,8,test,12,assets\cl_faces\faces_87.png,0,,847.85,0.0,1.0
24102802,cl_faces,8,test,13,assets\cl_faces\faces_12.png,0,,849.58,0.0,1.0
24102802,cl_faces,8,test,14,assets\cl_faces\faces_75.png,0,,851.31,0.0,1.0
24102802,cl_faces,8,test,15,assets\cl_faces\faces_24.png,0,,853.04,0.0,1.0
24102802,cl_faces,8,test,16,assets\cl_faces\faces_24.png,0,,854.76,1.0,0.0
24102802,cl_faces,8,test,17,assets\cl_faces\faces_24.png,0,,856.49,1.0,0.0
24102802,cl_faces,8,test,18,assets\cl_faces\faces_37.png,0,,858.21,0.0,1.0
24102802,cl_faces,8,test,19,assets\cl_faces\faces_37.png,0,,859.94,1.0,0.0
24102802,cl_faces,8,test,20,assets\cl_faces\faces_56.png,0,,861.66,0.0,1.0
24102802,cl_faces,9,test,0,assets\cl_faces\faces_20.png,0,,867.21,,
24102802,cl_faces,9,test,1,assets\cl_faces\faces_27.png,0,,868.94,0.0,1.0
24102802,cl_faces,9,test,2,assets\cl_faces\faces_65.png,0,,870.67,0.0,1.0
24102802,cl_faces,9,test,3,assets\cl_faces\faces_58.png,0,,872.39,0.0,1.0
24102802,cl_faces,9,test,4,assets\cl_faces\faces_61.png,0,,874.12,0.0,1.0
24102802,cl_faces,9,test,5,assets\cl_faces\faces_61.png,0,,875.85,1.0,0.0
24102802,cl_faces,9,test,6,assets\cl_faces\faces_82.png,0,,877.57,0.0,1.0
24102802,cl_faces,9,test,7,assets\cl_faces\faces_4.png,1,0.829,879.3,0.0,0.0
24102802,cl_faces,9,test,8,assets\cl_faces\faces_69.png,0,,881.02,0.0,1.0
24102802,cl_faces,9,test,9,assets\cl_faces\faces_71.png,0,,882.75,0.0,1.0
24102802,cl_faces,9,test,10,assets\cl_faces\faces_19.png,0,,884.48,0.0,1.0
24102802,cl_faces,9,test,11,assets\cl_faces\faces_8.png,0,,886.2,0.0,1.0
24102802,cl_faces,9,test,12,assets\cl_faces\faces_60.png,0,,887.93,0.0,1.0
24102802,cl_faces,9,test,13,assets\cl_faces\faces_40.png,0,,889.66,0.0,1.0
24102802,cl_faces,9,test,14,assets\cl_faces\faces_18.png,0,,891.38,0.0,1.0
24102802,cl_faces,9,test,15,assets\cl_faces\faces_74.png,0,,893.11,0.0,1.0
24102802,cl_faces,9,test,16,assets\cl_faces\faces_5.png,0,,894.84,0.0,1.0
24102802,cl_faces,9,test,17,assets\cl_faces\faces_5.png,0,,896.56,1.0,0.0
24102802,cl_faces,9,test,18,assets\cl_faces\faces_53.png,0,,898.29,0.0,1.0
24102802,cl_faces,9,test,19,assets\cl_faces\faces_64.png,0,,900.01,0.0,1.0
24102802,cl_faces,9,test,20,assets\cl_faces\faces_68.png,0,,901.74,0.0,1.0
24102802,cl_faces,10,test,0,assets\cl_faces\faces_23.png,1,0.104,907.83,,
24102802,cl_faces,10,test,1,assets\cl_faces\faces_44.png,0,,909.56,0.0,1.0
24102802,cl_faces,10,test,2,assets\cl_faces\faces_44.png,0,,911.28,1.0,0.0
24102802,cl_faces,10,test,3,assets\cl_faces\faces_51.png,0,,913.01,0.0,1.0
24102802,cl_faces,10,test,4,assets\cl_faces\faces_51.png,0,,914.74,1.0,0.0
24102802,cl_faces,10,test,5,assets\cl_faces\faces_79.png,0,,916.46,0.0,1.0
24102802,cl_faces,10,test,6,assets\cl_faces\faces_79.png,0,,918.18,1.0,0.0
24102802,cl_faces,10,test,7,assets\cl_faces\faces_31.png,0,,919.91,0.0,1.0
24102802,cl_faces,10,test,8,assets\cl_faces\faces_30.png,0,,921.63,0.0,1.0
24102802,cl_faces,10,test,9,assets\cl_faces\faces_67.png,0,,923.35,0.0,1.0
24102802,cl_faces,10,test,10,assets\cl_faces\faces_52.png,0,,925.08,0.0,1.0
24102802,cl_faces,10,test,11,assets\cl_faces\faces_25.png,0,,926.81,0.0,1.0
24102802,cl_faces,10,test,12,assets\cl_faces\faces_16.png,0,,928.53,0.0,1.0
24102802,cl_faces,10,test,13,assets\cl_faces\faces_46.png,0,,930.26,0.0,1.0
24102802,cl_faces,10,test,14,assets\cl_faces\faces_49.png,0,,931.98,0.0,1.0
24102802,cl_faces,10,test,15,assets\cl_faces\faces_49.png,0,,933.71,1.0,0.0
24102802,cl_faces,10,test,16,assets\cl_faces\faces_49.png,0,,935.43,1.0,0.0
24102802,cl_faces,10,test,17,assets\cl_faces\faces_32.png,0,,937.15,0.0,1.0
24102802,cl_faces,10,test,18,assets\cl_faces\faces_70.png,0,,938.88,0.0,1.0
24102802,cl_faces,10,test,19,assets\cl_faces\faces_70.png,0,,940.61,1.0,0.0
24102802,cl_faces,10,test,20,assets\cl_faces\faces_86.png,0,,942.33,0.0,1.0
24102802,cl_character,1,test,0,扑,0,,962.92,,
24102802,cl_character,1,test,1,叶,0,,964.64,0.0,1.0
24102802,cl_character,1,test,2,阳,0,,966.36,0.0,1.0
24102802,cl_character,1,test,3,友,0,,968.08,0.0,1.0
24102802,cl_character,1,test,4,丙,0,,969.8,0.0,1.0
24102802,cl_character,1,test,5,庄,0,,971.53,0.0,1.0
24102802,cl_character,1,test,6,后,0,,973.25,0.0,1.0
24102802,cl_character,1,test,7,斥,0,,974.97,0.0,1.0
24102802,cl_character,1,test,8,贞,0,,976.69,0.0,1.0
24102802,cl_character,1,test,9,业,0,,978.41,0.0,1.0
24102802,cl_character,1,test,10,巧,0,,980.14,0.0,1.0
24102802,cl_character,1,test,11,巧,0,,981.86,1.0,0.0
24102802,cl_character,1,test,12,巧,0,,983.58,1.0,0.0
24102802,cl_character,1,test,13,对,0,,985.3,0.0,1.0
24102802,cl_character,1,test,14,升,0,,987.02,0.0,1.0
24102802,cl_character,1,test,15,毕,0,,988.75,0.0,1.0
24102802,cl_character,1,test,16,叫,0,,990.47,0.0,1.0
24102802,cl_character,1,test,17,朴,0,,992.19,0.0,1.0
24102802,cl_character,1,test,18,朴,0,,993.91,1.0,0.0
24102802,cl_character,1,test,19,朱,0,,995.63,0.0,1.0
24102802,cl_character,1,test,20,吗,0,,997.36,0.0,1.0
24102802,cl_character,2,test,0,仓,0,,1002.8,,
24102802,cl_character,2,test,1,兆,0,,1004.52,0.0,1.0
24102802,cl_character,2,test,2,灰,0,,1006.24,0.0,1.0
24102802,cl_character,2,test,3,页,0,,1007.97,0.0,1.0
24102802,cl_character,2,test,4,纤,0,,1009.69,0.0,1.0
24102802,cl_character,2,test,5,尘,0,,1011.42,0.0,1.0
24102802,cl_character,2,test,6,肌,0,,1013.14,0.0,1.0
24102802,cl_character,2,test,7,价,0,,1014.87,0.0,1.0
24102802,cl_character,2,test,8,问,0,,1016.59,0.0,1.0
24102802,cl_character,2,test,9,未,0,,1018.31,0.0,1.0
24102802,cl_character,2,test,10,未,0,,1020.03,1.0,0.0
24102802,cl_character,2,test,11,讯,0,,1021.75,0.0,1.0
24102802,cl_character,2,test,12,礼,0,,1023.48,0.0,1.0
24102802,cl_character,2,test,13,妈,0,,1025.21,0.0,1.0
24102802,cl_character,2,test,14,似,0,,1026.93,0.0,1.0
24102802,cl_character,2,test,15,迅,0,,1028.65,0.0,1.0
24102802,cl_character,2,test,16,网,0,,1030.37,0.0,1.0
24102802,cl_character,2,test,17,有,0,,1032.1,0.0,1.0
24102802,cl_character,2,test,18,扩,0,,1033.82,0.0,1.0
24102802,cl_character,2,test,19,汤,0,,1035.54,0.0,1.0
24102802,cl_character,2,test,20,妇,0,,1037.26,0.0,1.0
24102802,cl_character,3,test,0,列,0,,1044.42,,
24102802,cl_character,3,test,1,自,0,,1046.14,0.0,1.0
24102802,cl_character,3,test,2,月,0,,1047.86,0.0,1.0
24102802,cl_character,3,test,3,月,0,,1049.58,1.0,0.0
24102802,cl_character,3,test,4,订,0,,1051.3,0.0,1.0
24102802,cl_character,3,test,5,奴,0,,1053.02,0.0,1.0
24102802,cl_character,3,test,6,匀,0,,1054.75,0.0,1.0
24102802,cl_character,3,test,7,王,0,,1056.47,0.0,1.0
24102802,cl_character,3,test,8,伍,0,,1058.19,0.0,1.0
24102802,cl_character,3,test,9,同,0,,1059.91,0.0,1.0
24102802,cl_character,3,test,10,欢,0,,1061.63,0.0,1.0
24102802,cl_character,3,test,11,戈,0,,1063.35,0.0,1.0
24102802,cl_character,3,test,12,齐,0,,1065.07,0.0,1.0
24102802,cl_character,3,test,13,左,0,,1066.8,0.0,1.0
24102802,cl_character,3,test,14,旬,0,,1068.52,0.0,1.0
24102802,cl_character,3,test,15,众,0,,1070.24,0.0,1.0
24102802,cl_character,3,test,16,灰,0,,1071.96,0.0,1.0
24102802,cl_character,3,test,17,尤,0,,1073.68,0.0,1.0
24102802,cl_character,3,test,18,允,0,,1075.4,0.0,1.0
24102802,cl_character,3,test,19,巨,0,,1077.12,0.0,1.0
24102802,cl_character,3,test,20,田,0,,1078.85,0.0,1.0
24102802,cl_character,4,test,0,杂,0,,1084.47,,
24102802,cl_character,4,test,1,欠,0,,1086.2,0.0,1.0
24102802,cl_character,4,test,2,尼,0,,1087.93,0.0,1.0
24102802,cl_character,4,test,3,伏,0,,1089.65,0.0,1.0
24102802,cl_character,4,test,4,伏,0,,1091.37,1.0,0.0
24102802,cl_character,4,test,5,乐,0,,1093.09,0.0,1.0
24102802,cl_character,4,test,6,再,0,,1094.81,0.0,1.0
24102802,cl_character,4,test,7,方,0,,1096.53,0.0,1.0
24102802,cl_character,4,test,8,守,0,,1098.26,0.0,1.0
24102802,cl_character,4,test,9,池,0,,1099.98,0.0,1.0
24102802,cl_character,4,test,10,多,0,,1101.7,0.0,1.0
24102802,cl_character,4,test,11,从,0,,1103.42,0.0,1.0
24102802,cl_character,4,test,12,匆,0,,1105.15,0.0,1.0
24102802,cl_character,4,test,13,巧,0,,1106.87,0.0,1.0
24102802,cl_character,4,test,14,平,0,,1108.59,0.0,1.0
24102802,cl_character,4,test,15,平,0,,1110.31,1.0,0.0
24102802,cl_character,4,test,16,华,0,,1112.04,0.0,1.0
24102802,cl_character,4,test,17,执,0,,1113.76,0.0,1.0
24102802,cl_character,4,test,18,竹,0,,1115.49,0.0,1.0
24102802,cl_character,4,test,19,伙,0,,1117.21,0.0,1.0
24102802,cl_character,4,test,20,央,0,,1118.93,0.0,1.0
24102802,cl_character,5,test,0,业,0,,1125.98,,
24102802,cl_character,5,test,1,讼,0,,1127.7,0.0,1.0
24102802,cl_character,5,test,2,争,0,,1129.43,0.0,1.0
24102802,cl_character,5,test,3,争,0,,1131.15,1.0,0.0
24102802,cl_character,5,test,4,争,0,,1132.86,1.0,0.0
24102802,cl_character,5,test,5,布,0,,1134.59,0.0,1.0
24102802,cl_character,5,test,6,朵,0,,1136.32,0.0,1.0
24102802,cl_character,5,test,7,示,0,,1138.04,0.0,1.0
24102802,cl_character,5,test,8,示,0,,1139.76,1.0,0.0
24102802,cl_character,5,test,9,吗,0,,1141.48,0.0,1.0
24102802,cl_character,5,test,10,羊,0,,1143.2,0.0,1.0
24102802,cl_character,5,test,11,仗,0,,1144.92,0.0,1.0
24102802,cl_character,5,test,12,好,0,,1146.64,0.0,1.0
24102802,cl_character,5,test,13,页,0,,1148.37,0.0,1.0
24102802,cl_character,5,test,14,凤,0,,1150.1,0.0,1.0
24102802,cl_character,5,test,15,巨,0,,1151.82,0.0,1.0
24102802,cl_character,5,test,16,后,0,,1153.54,0.0,1.0
24102802,cl_character,5,test,17,申,0,,1155.27,0.0,1.0
24102802,cl_character,5,test,18,太,0,,1156.99,0.0,1.0
24102802,cl_character,5,test,19,刚,0,,1158.72,0.0,1.0
24102802,cl_character,5,test,20,会,0,,1160.44,0.0,1.0
24102802,cl_character,6,test,0,头,0,,1167.98,,
24102802,cl_character,6,test,1,她,0,,1169.7,0.0,1.0
24102802,cl_character,6,test,2,庆,0,,1171.42,0.0,1.0
24102802,cl_character,6,test,3,内,0,,1173.15,0.0,1.0
24102802,cl_character,6,test,4,厌,0,,1174.87,0.0,1.0
24102802,cl_character,6,test,5,阳,0,,1176.59,0.0,1.0
24102802,cl_character,6,test,6,师,0,,1178.31,0.0,1.0
24102802,cl_character,6,test,7,似,0,,1180.03,0.0,1.0
24102802,cl_character,6,test,8,乎,0,,1181.75,0.0,1.0
24102802,cl_character,6,test,9,曲,0,,1183.47,0.0,1.0
24102802,cl_character,6,test,10,污,0,,1185.2,0.0,1.0
24102802,cl_character,6,test,11,矛,0,,1186.93,0.0,1.0
24102802,cl_character,6,test,12,训,0,,1188.65,0.0,1.0
24102802,cl_character,6,test,13,训,0,,1190.37,1.0,0.0
24102802,cl_character,6,test,14,公,0,,1192.09,0.0,1.0
24102802,cl_character,6,test,15,元,0,,1193.82,0.0,1.0
24102802,cl_character,6,test,16,场,0,,1195.54,0.0,1.0
24102802,cl_character,6,test,17,那,0,,1197.27,0.0,1.0
24102802,cl_character,6,test,18,外,0,,1198.99,0.0,1.0
24102802,cl_character,6,test,19,外,0,,1200.71,1.0,0.0
24102802,cl_character,6,test,20,鸟,0,,1202.44,0.0,1.0
24102802,cl_character,7,test,0,介,0,,1209.44,,
24102802,cl_character,7,test,1,介,0,,1211.16,1.0,0.0
24102802,cl_character,7,test,2,北,0,,1212.88,0.0,1.0
24102802,cl_character,7,test,3,军,0,,1214.61,0.0,1.0
24102802,cl_character,7,test,4,驰,0,,1216.33,0.0,1.0
24102802,cl_character,7,test,5,充,0,,1218.05,0.0,1.0
24102802,cl_character,7,test,6,母,0,,1219.78,0.0,1.0
24102802,cl_character,7,test,7,央,0,,1221.5,0.0,1.0
24102802,cl_character,7,test,8,划,0,,1223.23,0.0,1.0
24102802,cl_character,7,test,9,年,0,,1224.95,0.0,1.0
24102802,cl_character,7,test,10,币,0,,1226.68,0.0,1.0
24102802,cl_character,7,test,11,召,0,,1228.41,0.0,1.0
24102802,cl_character,7,test,12,忆,0,,1230.13,0.0,1.0
24102802,cl_character,7,test,13,妇,0,,1231.85,0.0,1.0
24102802,cl_character,7,test,14,奸,0,,1233.57,0.0,1.0
24102802,cl_character,7,test,15,目,0,,1235.29,0.0,1.0
24102802,cl_character,7,test,16,执,0,,1237.01,0.0,1.0
24102802,cl_character,7,test,17,芝,0,,1238.74,0.0,1.0
24102802,cl_character,7,test,18,芝,0,,1240.46,1.0,0.0
24102802,cl_character,7,test,19,讨,0,,1242.19,0.0,1.0
24102802,cl_character,7,test,20,圣,0,,1243.91,0.0,1.0
24102802,cl_character,8,test,0,厉,0,,1250.41,,
24102802,cl_character,8,test,1,劣,0,,1252.13,0.0,1.0
24102802,cl_character,8,test,2,廷,0,,1253.86,0.0,1.0
24102802,cl_character,8,test,3,廷,0,,1255.58,1.0,0.0
24102802,cl_character,8,test,4,本,0,,1257.3,0.0,1.0
24102802,cl_character,8,test,5,轨,0,,1259.03,0.0,1.0
24102802,cl_character,8,test,6,手,0,,1260.75,0.0,1.0
24102802,cl_character,8,test,7,立,0,,1262.47,0.0,1.0
24102802,cl_character,8,test,8,立,0,,1264.19,1.0,0.0
24102802,cl_character,8,test,9,订,0,,1265.91,0.0,1.0
24102802,cl_character,8,test,10,乌,0,,1267.63,0.0,1.0
24102802,cl_character,8,test,11,冬,0,,1269.35,0.0,1.0
24102802,cl_character,8,test,12,计,0,,1271.07,0.0,1.0
24102802,cl_character,8,test,13,瓜,0,,1272.8,0.0,1.0
24102802,cl_character,8,test,14,仁,0,,1274.52,0.0,1.0
24102802,cl_character,8,test,15,厌,0,,1276.24,0.0,1.0
24102802,cl_character,8,test,16,井,0,,1277.96,0.0,1.0
24102802,cl_character,8,test,17,成,0,,1279.68,0.0,1.0
24102802,cl_character,8,test,18,成,0,,1281.4,1.0,0.0
24102802,cl_character,8,test,19,竹,0,,1283.13,0.0,1.0
24102802,cl_character,8,test,20,内,0,,1284.85,0.0,1.0
24102802,cl_character,9,test,0,米,0,,1291.26,,
24102802,cl_character,9,test,1,只,0,,1292.98,0.0,1.0
24102802,cl_character,9,test,2,只,0,,1294.7,1.0,0.0
24102802,cl_character,9,test,3,斗,0,,1296.43,0.0,1.0
24102802,cl_character,9,test,4,朵,0,,1298.15,0.0,1.0
24102802,cl_character,9,test,5,朵,0,,1299.87,1.0,0.0
24102802,cl_character,9,test,6,爪,0,,1301.59,0.0,1.0
24102802,cl_character,9,test,7,叮,0,,1303.31,0.0,1.0
24102802,cl_character,9,test,8,幼,0,,1305.04,0.0,1.0
24102802,cl_character,9,test,9,岁,0,,1306.76,0.0,1.0
24102802,cl_character,9,test,10,弗,0,,1308.48,0.0,1.0
24102802,cl_character,9,test,11,汁,0,,1310.2,0.0,1.0
24102802,cl_character,9,test,12,尼,0,,1311.92,0.0,1.0
24102802,cl_character,9,test,13,丛,0,,1313.64,0.0,1.0
24102802,cl_character,9,test,14,气,0,,1315.36,0.0,1.0
24102802,cl_character,9,test,15,访,0,,1317.09,0.0,1.0
24102802,cl_character,9,test,16,巩,0,,1318.82,0.0,1.0
24102802,cl_character,9,test,17,冰,0,,1320.54,0.0,1.0
24102802,cl_character,9,test,18,丙,0,,1322.26,0.0,1.0
24102802,cl_character,9,test,19,丙,0,,1323.98,1.0,0.0
24102802,cl_character,9,test,20,风,0,,1325.7,0.0,1.0
24102802,cl_character,10,test,0,宅,0,,1332.09,,
24102802,cl_character,10,test,1,夫,0,,1333.81,0.0,1.0
24102802,cl_character,10,test,2,西,0,,1335.54,0.0,1.0
24102802,cl_character,10,test,3,考,0,,1337.28,0.0,1.0
24102802,cl_character,10,test,4,办,0,,1339.0,0.0,1.0
24102802,cl_character,10,test,5,包,0,,1340.72,0.0,1.0
24102802,cl_character,10,test,6,岂,0,,1342.44,0.0,1.0
24102802,cl_character,10,test,7,瓜,0,,1344.16,0.0,1.0
24102802,cl_character,10,test,8,名,0,,1345.88,0.0,1.0
24102802,cl_character,10,test,9,名,0,,1347.6,1.0,0.0
24102802,cl_character,10,test,10,伍,0,,1349.32,0.0,1.0
24102802,cl_character,10,test,11,伐,0,,1351.04,0.0,1.0
24102802,cl_character,10,test,12,贞,0,,1352.76,0.0,1.0
24102802,cl_character,10,test,13,匀,0,,1354.48,0.0,1.0
24102802,cl_character,10,test,14,孙,0,,1356.2,0.0,1.0
24102802,cl_character,10,test,15,优,0,,1357.93,0.0,1.0
24102802,cl_character,10,test,16,军,0,,1359.65,0.0,1.0
24102802,cl_character,10,test,17,军,0,,1361.37,1.0,0.0
24102802,cl_character,10,test,18,约,0,,1363.09,0.0,1.0
24102802,cl_character,10,test,19,过,0,,1364.81,0.0,1.0
24102802,cl_character,10,test,20,由,0,,1366.53,0.0,1.0
24102802,cl_tools,1,test,0,assets\cl_tools\tools_82.png,0,,1410.16,,
24102802,cl_tools,1,test,1,assets\cl_tools\tools_48.png,0,,1411.88,0.0,1.0
24102802,cl_tools,1,test,2,assets\cl_tools\tools_88.png,0,,1413.61,0.0,1.0
24102802,cl_tools,1,test,3,assets\cl_tools\tools_14.png,0,,1415.34,0.0,1.0
24102802,cl_tools,1,test,4,assets\cl_tools\tools_90.png,0,,1417.07,0.0,1.0
24102802,cl_tools,1,test,5,assets\cl_tools\tools_56.png,0,,1418.8,0.0,1.0
24102802,cl_tools,1,test,6,assets\cl_tools\tools_1.png,0,,1420.52,0.0,1.0
24102802,cl_tools,1,test,7,assets\cl_tools\tools_23.png,0,,1422.25,0.0,1.0
24102802,cl_tools,1,test,8,assets\cl_tools\tools_6.png,0,,1423.98,0.0,1.0
24102802,cl_tools,1,test,9,assets\cl_tools\tools_33.png,0,,1425.71,0.0,1.0
24102802,cl_tools,1,test,10,assets\cl_tools\tools_33.png,1,0.64,1427.45,1.0,1.0
24102802,cl_tools,1,test,11,assets\cl_tools\tools_59.png,1,0.839,1429.18,0.0,0.0
24102802,cl_tools,1,test,12,assets\cl_tools\tools_80.png,0,,1430.9,0.0,1.0
24102802,cl_tools,1,test,13,assets\cl_tools\tools_80.png,1,0.673,1432.63,1.0,1.0
24102802,cl_tools,1,test,14,assets\cl_tools\tools_9.png,0,,1434.36,0.0,1.0
24102802,cl_tools,1,test,15,assets\cl_tools\tools_30.png,0,,1436.09,0.0,1.0
24102802,cl_tools,1,test,16,assets\cl_tools\tools_28.png,0,,1437.81,0.0,1.0
24102802,cl_tools,1,test,17,assets\cl_tools\tools_38.png,0,,1439.54,0.0,1.0
24102802,cl_tools,1,test,18,assets\cl_tools\tools_42.png,0,,1441.27,0.0,1.0
24102802,cl_tools,1,test,19,assets\cl_tools\tools_71.png,0,,1443.0,0.0,1.0
24102802,cl_tools,1,test,20,assets\cl_tools\tools_2.png,0,,1444.73,0.0,1.0
24102802,cl_tools,2,test,0,assets\cl_tools\tools_75.png,0,,1451.63,,
24102802,cl_tools,2,test,1,assets\cl_tools\tools_57.png,0,,1453.35,0.0,1.0
24102802,cl_tools,2,test,2,assets\cl_tools\tools_24.png,0,,1455.08,0.0,1.0
24102802,cl_tools,2,test,3,assets\cl_tools\tools_8.png,0,,1456.81,0.0,1.0
24102802,cl_tools,2,test,4,assets\cl_tools\tools_31.png,0,,1458.54,0.0,1.0
24102802,cl_tools,2,test,5,assets\cl_tools\tools_46.png,0,,1460.28,0.0,1.0
24102802,cl_tools,2,test,6,assets\cl_tools\tools_68.png,0,,1462.01,0.0,1.0
24102802,cl_tools,2,test,7,assets\cl_tools\tools_36.png,0,,1463.73,0.0,1.0
24102802,cl_tools,2,test,8,assets\cl_tools\tools_78.png,0,,1465.46,0.0,1.0
24102802,cl_tools,2,test,9,assets\cl_tools\tools_70.png,0,,1467.19,0.0,1.0
24102802,cl_tools,2,test,10,assets\cl_tools\tools_54.png,0,,1468.92,0.0,1.0
24102802,cl_tools,2,test,11,assets\cl_tools\tools_54.png,1,0.644,1470.65,1.0,1.0
24102802,cl_tools,2,test,12,assets\cl_tools\tools_61.png,0,,1472.38,0.0,1.0
24102802,cl_tools,2,test,13,assets\cl_tools\tools_19.png,1,0.829,1474.1,0.0,0.0
24102802,cl_tools,2,test,14,assets\cl_tools\tools_72.png,0,,1475.83,0.0,1.0
24102802,cl_tools,2,test,15,assets\cl_tools\tools_32.png,0,,1477.56,0.0,1.0
24102802,cl_tools,2,test,16,assets\cl_tools\tools_32.png,1,0.544,1479.29,1.0,1.0
24102802,cl_tools,2,test,17,assets\cl_tools\tools_34.png,0,,1481.01,0.0,1.0
24102802,cl_tools,2,test,18,assets\cl_tools\tools_60.png,0,,1482.74,0.0,1.0
24102802,cl_tools,2,test,19,assets\cl_tools\tools_22.png,0,,1484.47,0.0,1.0
24102802,cl_tools,2,test,20,assets\cl_tools\tools_39.png,0,,1486.2,0.0,1.0
24102802,cl_tools,3,test,0,assets\cl_tools\tools_44.png,0,,1491.84,,
24102802,cl_tools,3,test,1,assets\cl_tools\tools_85.png,0,,1493.56,0.0,1.0
24102802,cl_tools,3,test,2,assets\cl_tools\tools_51.png,0,,1495.29,0.0,1.0
24102802,cl_tools,3,test,3,assets\cl_tools\tools_45.png,0,,1497.02,0.0,1.0
24102802,cl_tools,3,test,4,assets\cl_tools\tools_80.png,0,,1498.75,0.0,1.0
24102802,cl_tools,3,test,5,assets\cl_tools\tools_16.png,0,,1500.48,0.0,1.0
24102802,cl_tools,3,test,6,assets\cl_tools\tools_50.png,0,,1502.21,0.0,1.0
24102802,cl_tools,3,test,7,assets\cl_tools\tools_83.png,0,,1503.94,0.0,1.0
24102802,cl_tools,3,test,8,assets\cl_tools\tools_55.png,0,,1505.66,0.0,1.0
24102802,cl_tools,3,test,9,assets\cl_tools\tools_1.png,0,,1507.39,0.0,1.0
24102802,cl_tools,3,test,10,assets\cl_tools\tools_73.png,0,,1509.12,0.0,1.0
24102802,cl_tools,3,test,11,assets\cl_tools\tools_21.png,0,,1510.85,0.0,1.0
24102802,cl_tools,3,test,12,assets\cl_tools\tools_7.png,0,,1512.58,0.0,1.0
24102802,cl_tools,3,test,13,assets\cl_tools\tools_86.png,0,,1514.3,0.0,1.0
24102802,cl_tools,3,test,14,assets\cl_tools\tools_12.png,0,,1516.03,0.0,1.0
24102802,cl_tools,3,test,15,assets\cl_tools\tools_4.png,0,,1517.76,0.0,1.0
24102802,cl_tools,3,test,16,assets\cl_tools\tools_11.png,0,,1519.49,0.0,1.0
24102802,cl_tools,3,test,17,assets\cl_tools\tools_74.png,0,,1521.22,0.0,1.0
24102802,cl_tools,3,test,18,assets\cl_tools\tools_69.png,0,,1522.95,0.0,1.0
24102802,cl_tools,3,test,19,assets\cl_tools\tools_87.png,0,,1524.68,0.0,1.0
24102802,cl_tools,3,test,20,assets\cl_tools\tools_63.png,0,,1526.41,0.0,1.0
24102802,cl_tools,4,test,0,assets\cl_tools\tools_89.png,0,,1532.51,,
24102802,cl_tools,4,test,1,assets\cl_tools\tools_64.png,0,,1534.24,0.0,1.0
24102802,cl_tools,4,test,2,assets\cl_tools\tools_38.png,0,,1535.97,0.0,1.0
24102802,cl_tools,4,test,3,assets\cl_tools\tools_38.png,1,0.666,1537.7,1.0,1.0
24102802,cl_tools,4,test,4,assets\cl_tools\tools_17.png,0,,1539.43,0.0,1.0
24102802,cl_tools,4,test,5,assets\cl_tools\tools_26.png,0,,1541.15,0.0,1.0
24102802,cl_tools,4,test,6,assets\cl_tools\tools_53.png,0,,1542.88,0.0,1.0
24102802,cl_tools,4,test,7,assets\cl_tools\tools_53.png,1,0.539,1544.61,1.0,1.0
24102802,cl_tools,4,test,8,assets\cl_tools\tools_49.png,0,,1546.34,0.0,1.0
24102802,cl_tools,4,test,9,assets\cl_tools\tools_49.png,1,0.642,1548.07,1.0,1.0
24102802,cl_tools,4,test,10,assets\cl_tools\tools_5.png,0,,1549.8,0.0,1.0
24102802,cl_tools,4,test,11,assets\cl_tools\tools_36.png,0,,1551.53,0.0,1.0
24102802,cl_tools,4,test,12,assets\cl_tools\tools_46.png,0,,1553.26,0.0,1.0
24102802,cl_tools,4,test,13,assets\cl_tools\tools_6.png,0,,1554.98,0.0,1.0
24102802,cl_tools,4,test,14,assets\cl_tools\tools_41.png,0,,1556.71,0.0,1.0
24102802,cl_tools,4,test,15,assets\cl_tools\tools_8.png,0,,1558.44,0.0,1.0
24102802,cl_tools,4,test,16,assets\cl_tools\tools_8.png,1,0.573,1560.17,1.0,1.0
24102802,cl_tools,4,test,17,assets\cl_tools\tools_8.png,1,0.582,1561.9,1.0,1.0
24102802,cl_tools,4,test,18,assets\cl_tools\tools_84.png,0,,1563.62,0.0,1.0
24102802,cl_tools,4,test,19,assets\cl_tools\tools_84.png,1,0.6,1565.35,1.0,1.0
24102802,cl_tools,4,test,20,assets\cl_tools\tools_68.png,0,,1567.08,0.0,1.0
24102802,cl_tools,5,test,0,assets\cl_tools\tools_57.png,0,,1572.58,,
24102802,cl_tools,5,test,1,assets\cl_tools\tools_43.png,0,,1574.31,0.0,1.0
24102802,cl_tools,5,test,2,assets\cl_tools\tools_18.png,0,,1576.04,0.0,1.0
24102802,cl_tools,5,test,3,assets\cl_tools\tools_88.png,0,,1577.77,0.0,1.0
24102802,cl_tools,5,test,4,assets\cl_tools\tools_31.png,0,,1579.5,0.0,1.0
24102802,cl_tools,5,test,5,assets\cl_tools\tools_9.png,0,,1581.22,0.0,1.0
24102802,cl_tools,5,test,6,assets\cl_tools\tools_56.png,0,,1582.95,0.0,1.0
24102802,cl_tools,5,test,7,assets\cl_tools\tools_61.png,0,,1584.68,0.0,1.0
24102802,cl_tools,5,test,8,assets\cl_tools\tools_60.png,0,,1586.41,0.0,1.0
24102802,cl_tools,5,test,9,assets\cl_tools\tools_65.png,0,,1588.14,0.0,1.0
24102802,cl_tools,5,test,10,assets\cl_tools\tools_79.png,0,,1589.87,0.0,1.0
24102802,cl_tools,5,test,11,assets\cl_tools\tools_66.png,0,,1591.59,0.0,1.0
24102802,cl_tools,5,test,12,assets\cl_tools\tools_22.png,0,,1593.32,0.0,1.0
24102802,cl_tools,5,test,13,assets\cl_tools\tools_22.png,1,0.569,1595.05,1.0,1.0
24102802,cl_tools,5,test,14,assets\cl_tools\tools_82.png,0,,1596.77,0.0,1.0
24102802,cl_tools,5,test,15,assets\cl_tools\tools_13.png,0,,1598.51,0.0,1.0
24102802,cl_tools,5,test,16,assets\cl_tools\tools_34.png,0,,1600.24,0.0,1.0
24102802,cl_tools,5,test,17,assets\cl_tools\tools_27.png,0,,1601.97,0.0,1.0
24102802,cl_tools,5,test,18,assets\cl_tools\tools_71.png,0,,1603.69,0.0,1.0
24102802,cl_tools,5,test,19,assets\cl_tools\tools_3.png,0,,1605.42,0.0,1.0
24102802,cl_tools,5,test,20,assets\cl_tools\tools_1.png,0,,1607.15,0.0,1.0
24102802,cl_tools,6,test,0,assets\cl_tools\tools_32.png,0,,1613.43,,
24102802,cl_tools,6,test,1,assets\cl_tools\tools_12.png,0,,1615.16,0.0,1.0
24102802,cl_tools,6,test,2,assets\cl_tools\tools_4.png,0,,1616.89,0.0,1.0
24102802,cl_tools,6,test,3,assets\cl_tools\tools_64.png,0,,1618.61,0.0,1.0
24102802,cl_tools,6,test,4,assets\cl_tools\tools_11.png,0,,1620.34,0.0,1.0
24102802,cl_tools,6,test,5,assets\cl_tools\tools_40.png,0,,1622.07,0.0,1.0
24102802,cl_tools,6,test,6,assets\cl_tools\tools_7.png,0,,1623.8,0.0,1.0
24102802,cl_tools,6,test,7,assets\cl_tools\tools_42.png,0,,1625.52,0.0,1.0
24102802,cl_tools,6,test,8,assets\cl_tools\tools_42.png,0,,1627.25,1.0,0.0
24102802,cl_tools,6,test,9,assets\cl_tools\tools_73.png,0,,1628.98,0.0,1.0
24102802,cl_tools,6,test,10,assets\cl_tools\tools_21.png,0,,1630.71,0.0,1.0
24102802,cl_tools,6,test,11,assets\cl_tools\tools_78.png,0,,1632.44,0.0,1.0
24102802,cl_tools,6,test,12,assets\cl_tools\tools_53.png,0,,1634.17,0.0,1.0
24102802,cl_tools,6,test,13,assets\cl_tools\tools_58.png,0,,1635.9,0.0,1.0
24102802,cl_tools,6,test,14,assets\cl_tools\tools_72.png,0,,1637.62,0.0,1.0
24102802,cl_tools,6,test,15,assets\cl_tools\tools_2.png,0,,1639.35,0.0,1.0
24102802,cl_tools,6,test,16,assets\cl_tools\tools_20.png,0,,1641.08,0.0,1.0
24102802,cl_tools,6,test,17,assets\cl_tools\tools_62.png,0,,1642.81,0.0,1.0
24102802,cl_tools,6,test,18,assets\cl_tools\tools_36.png,0,,1644.54,0.0,1.0
24102802,cl_tools,6,test,19,assets\cl_tools\tools_49.png,0,,1646.27,0.0,1.0
24102802,cl_tools,6,test,20,assets\cl_tools\tools_31.png,0,,1648.0,0.0,1.0
24102802,cl_tools,7,test,0,assets\cl_tools\tools_67.png,0,,1653.97,,
24102802,cl_tools,7,test,1,assets\cl_tools\tools_44.png,0,,1655.7,0.0,1.0
24102802,cl_tools,7,test,2,assets\cl_tools\tools_25.png,0,,1657.44,0.0,1.0
24102802,cl_tools,7,test,3,assets\cl_tools\tools_88.png,0,,1659.16,0.0,1.0
24102802,cl_tools,7,test,4,assets\cl_tools\tools_68.png,0,,1660.9,0.0,1.0
24102802,cl_tools,7,test,5,assets\cl_tools\tools_6.png,0,,1662.62,0.0,1.0
24102802,cl_tools,7,test,6,assets\cl_tools\tools_41.png,0,,1664.35,0.0,1.0
24102802,cl_tools,7,test,7,assets\cl_tools\tools_80.png,0,,1666.08,0.0,1.0
24102802,cl_tools,7,test,8,assets\cl_tools\tools_33.png,0,,1667.81,0.0,1.0
24102802,cl_tools,7,test,9,assets\cl_tools\tools_17.png,0,,1669.54,0.0,1.0
24102802,cl_tools,7,test,10,assets\cl_tools\tools_13.png,0,,1671.27,0.0,1.0
24102802,cl_tools,7,test,11,assets\cl_tools\tools_54.png,1,0.104,1673.0,0.0,0.0
24102802,cl_tools,7,test,12,assets\cl_tools\tools_54.png,1,0.649,1674.72,1.0,1.0
24102802,cl_tools,7,test,13,assets\cl_tools\tools_60.png,0,,1676.45,0.0,1.0
24102802,cl_tools,7,test,14,assets\cl_tools\tools_9.png,0,,1678.18,0.0,1.0
24102802,cl_tools,7,test,15,assets\cl_tools\tools_9.png,1,0.818,1679.91,1.0,1.0
24102802,cl_tools,7,test,16,assets\cl_tools\tools_86.png,0,,1681.63,0.0,1.0
24102802,cl_tools,7,test,17,assets\cl_tools\tools_77.png,0,,1683.36,0.0,1.0
24102802,cl_tools,7,test,18,assets\cl_tools\tools_79.png,0,,1685.09,0.0,1.0
24102802,cl_tools,7,test,19,assets\cl_tools\tools_51.png,0,,1686.82,0.0,1.0
24102802,cl_tools,7,test,20,assets\cl_tools\tools_51.png,1,0.899,1688.55,1.0,1.0
24102802,cl_tools,8,test,0,assets\cl_tools\tools_64.png,0,,1694.06,,
24102802,cl_tools,8,test,1,assets\cl_tools\tools_18.png,0,,1695.79,0.0,1.0
24102802,cl_tools,8,test,2,assets\cl_tools\tools_26.png,0,,1697.52,0.0,1.0
24102802,cl_tools,8,test,3,assets\cl_tools\tools_76.png,0,,1699.25,0.0,1.0
24102802,cl_tools,8,test,4,assets\cl_tools\tools_12.png,0,,1700.97,0.0,1.0
24102802,cl_tools,8,test,5,assets\cl_tools\tools_3.png,0,,1702.7,0.0,1.0
24102802,cl_tools,8,test,6,assets\cl_tools\tools_3.png,1,0.725,1704.43,1.0,1.0
24102802,cl_tools,8,test,7,assets\cl_tools\tools_65.png,0,,1706.16,0.0,1.0
24102802,cl_tools,8,test,8,assets\cl_tools\tools_70.png,0,,1707.89,0.0,1.0
24102802,cl_tools,8,test,9,assets\cl_tools\tools_81.png,0,,1709.62,0.0,1.0
24102802,cl_tools,8,test,10,assets\cl_tools\tools_61.png,0,,1711.34,0.0,1.0
24102802,cl_tools,8,test,11,assets\cl_tools\tools_23.png,0,,1713.07,0.0,1.0
24102802,cl_tools,8,test,12,assets\cl_tools\tools_11.png,0,,1714.8,0.0,1.0
24102802,cl_tools,8,test,13,assets\cl_tools\tools_8.png,1,0.104,1716.53,0.0,0.0
24102802,cl_tools,8,test,14,assets\cl_tools\tools_46.png,0,,1718.26,0.0,1.0
24102802,cl_tools,8,test,15,assets\cl_tools\tools_89.png,0,,1719.99,0.0,1.0
24102802,cl_tools,8,test,16,assets\cl_tools\tools_72.png,0,,1721.71,0.0,1.0
24102802,cl_tools,8,test,17,assets\cl_tools\tools_14.png,0,,1723.44,0.0,1.0
24102802,cl_tools,8,test,18,assets\cl_tools\tools_45.png,0,,1725.17,0.0,1.0
24102802,cl_tools,8,test,19,assets\cl_tools\tools_88.png,0,,1726.9,0.0,1.0
24102802,cl_tools,8,test,20,assets\cl_tools\tools_50.png,0,,1728.63,0.0,1.0
24102802,cl_tools,9,test,0,assets\cl_tools\tools_80.png,0,,1734.67,,
24102802,cl_tools,9,test,1,assets\cl_tools\tools_75.png,0,,1736.4,0.0,1.0
24102802,cl_tools,9,test,2,assets\cl_tools\tools_19.png,0,,1738.13,0.0,1.0
24102802,cl_tools,9,test,3,assets\cl_tools\tools_62.png,0,,1739.86,0.0,1.0
24102802,cl_tools,9,test,4,assets\cl_tools\tools_25.png,0,,1741.58,0.0,1.0
24102802,cl_tools,9,test,5,assets\cl_tools\tools_43.png,0,,1743.31,0.0,1.0
24102802,cl_tools,9,test,6,assets\cl_tools\tools_90.png,0,,1745.04,0.0,1.0
24102802,cl_tools,9,test,7,assets\cl_tools\tools_63.png,0,,1746.77,0.0,1.0
24102802,cl_tools,9,test,8,assets\cl_tools\tools_54.png,0,,1748.5,0.0,1.0
24102802,cl_tools,9,test,9,assets\cl_tools\tools_73.png,0,,1750.22,0.0,1.0
24102802,cl_tools,9,test,10,assets\cl_tools\tools_69.png,0,,1751.95,0.0,1.0
24102802,cl_tools,9,test,11,assets\cl_tools\tools_7.png,0,,1753.68,0.0,1.0
24102802,cl_tools,9,test,12,assets\cl_tools\tools_32.png,0,,1755.41,0.0,1.0
24102802,cl_tools,9,test,13,assets\cl_tools\tools_58.png,0,,1757.13,0.0,1.0
24102802,cl_tools,9,test,14,assets\cl_tools\tools_53.png,0,,1758.86,0.0,1.0
24102802,cl_tools,9,test,15,assets\cl_tools\tools_83.png,0,,1760.59,0.0,1.0
24102802,cl_tools,9,test,16,assets\cl_tools\tools_56.png,0,,1762.32,0.0,1.0
24102802,cl_tools,9,test,17,assets\cl_tools\tools_65.png,0,,1764.05,0.0,1.0
24102802,cl_tools,9,test,18,assets\cl_tools\tools_27.png,1,0.104,1765.77,0.0,0.0
24102802,cl_tools,9,test,19,assets\cl_tools\tools_60.png,0,,1767.5,0.0,1.0
24102802,cl_tools,9,test,20,assets\cl_tools\tools_12.png,0,,1769.23,0.0,1.0
24102802,cl_tools,10,test,0,assets\cl_tools\tools_85.png,0,,1773.87,,
24102802,cl_tools,10,test,1,assets\cl_tools\tools_21.png,0,,1775.59,0.0,1.0
24102802,cl_tools,10,test,2,assets\cl_tools\tools_1.png,0,,1777.32,0.0,1.0
24102802,cl_tools,10,test,3,assets\cl_tools\tools_44.png,0,,1779.05,0.0,1.0
24102802,cl_tools,10,test,4,assets\cl_tools\tools_44.png,1,0.774,1780.78,1.0,1.0
24102802,cl_tools,10,test,5,assets\cl_tools\tools_36.png,0,,1782.5,0.0,1.0
24102802,cl_tools,10,test,6,assets\cl_tools\tools_36.png,1,0.716,1784.23,1.0,1.0
24102802,cl_tools,10,test,7,assets\cl_tools\tools_66.png,0,,1785.96,0.0,1.0
24102802,cl_tools,10,test,8,assets\cl_tools\tools_64.png,0,,1787.69,0.0,1.0
24102802,cl_tools,10,test,9,assets\cl_tools\tools_22.png,0,,1789.42,0.0,1.0
24102802,cl_tools,10,test,10,assets\cl_tools\tools_9.png,0,,1791.14,0.0,1.0
24102802,cl_tools,10,test,11,assets\cl_tools\tools_42.png,0,,1792.87,0.0,1.0
24102802,cl_tools,10,test,12,assets\cl_tools\tools_16.png,0,,1794.59,0.0,1.0
24102802,cl_tools,10,test,13,assets\cl_tools\tools_78.png,0,,1796.32,0.0,1.0
24102802,cl_tools,10,test,14,assets\cl_tools\tools_34.png,0,,1798.05,0.0,1.0
24102802,cl_tools,10,test,15,assets\cl_tools\tools_31.png,0,,1799.78,0.0,1.0
24102802,cl_tools,10,test,16,assets\cl_tools\tools_26.png,0,,1801.5,0.0,1.0
24102802,cl_tools,10,test,17,assets\cl_tools\tools_38.png,0,,1803.23,0.0,1.0
24102802,cl_tools,10,test,18,assets\cl_tools\tools_57.png,0,,1804.96,0.0,1.0
24102802,cl_tools,10,test,19,assets\cl_tools\tools_67.png,0,,1806.69,0.0,1.0
24102802,cl_tools,10,test,20,assets\cl_tools\tools_87.png,0,,1808.42,0.0,1.0
24102802,cl_letter,1,test,0,A,0,,1816.46,,
24102802,cl_letter,1,test,1,Y,0,,1818.19,0.0,1.0
24102802,cl_letter,1,test,2,L,0,,1819.91,0.0,1.0
24102802,cl_letter,1,test,3,P,0,,1821.64,0.0,1.0
24102802,cl_letter,1,test,4,P,1,0.815,1823.36,1.0,1.0
24102802,cl_letter,1,test,5,P,1,0.674,1825.08,1.0,1.0
24102802,cl_letter,1,test,6,N,0,,1826.81,0.0,1.0
24102802,cl_letter,1,test,7,C,0,,1828.53,0.0,1.0
24102802,cl_letter,1,test,8,E,0,,1830.26,0.0,1.0
24102802,cl_letter,1,test,9,Q,0,,1831.99,0.0,1.0
24102802,cl_letter,1,test,10,W,0,,1833.71,0.0,1.0
24102802,cl_letter,1,test,11,J,0,,1835.43,0.0,1.0
24102802,cl_letter,1,test,12,A,1,0.611,1837.15,0.0,0.0
24102802,cl_letter,1,test,13,Z,0,,1838.88,0.0,1.0
24102802,cl_letter,1,test,14,Z,1,0.619,1840.6,1.0,1.0
24102802,cl_letter,1,test,15,T,0,,1842.33,0.0,1.0
24102802,cl_letter,1,test,16,N,1,0.666,1844.05,0.0,0.0
24102802,cl_letter,1,test,17,N,1,0.685,1845.78,1.0,1.0
24102802,cl_letter,1,test,18,P,1,0.811,1847.5,0.0,0.0
24102802,cl_letter,1,test,19,P,1,0.705,1849.22,1.0,1.0
24102802,cl_letter,1,test,20,D,0,,1850.95,0.0,1.0
24102802,cl_letter,2,test,0,V,0,,1856.58,,
24102802,cl_letter,2,test,1,S,0,,1858.31,0.0,1.0
24102802,cl_letter,2,test,2,E,0,,1860.03,0.0,1.0
24102802,cl_letter,2,test,3,F,0,,1861.75,0.0,1.0
24102802,cl_letter,2,test,4,Y,0,,1863.48,0.0,1.0
24102802,cl_letter,2,test,5,K,0,,1865.21,0.0,1.0
24102802,cl_letter,2,test,6,N,0,,1866.93,0.0,1.0
24102802,cl_letter,2,test,7,S,0,,1868.66,0.0,1.0
24102802,cl_letter,2,test,8,M,0,,1870.38,0.0,1.0
24102802,cl_letter,2,test,9,A,0,,1872.11,0.0,1.0
24102802,cl_letter,2,test,10,R,0,,1873.83,0.0,1.0
24102802,cl_letter,2,test,11,W,0,,1875.56,0.0,1.0
24102802,cl_letter,2,test,12,K,0,,1877.28,0.0,1.0
24102802,cl_letter,2,test,13,G,0,,1879.01,0.0,1.0
24102802,cl_letter,2,test,14,L,0,,1880.73,0.0,1.0
24102802,cl_letter,2,test,15,B,0,,1882.46,0.0,1.0
24102802,cl_letter,2,test,16,T,0,,1884.18,0.0,1.0
24102802,cl_letter,2,test,17,T,1,0.564,1885.9,1.0,1.0
24102802,cl_letter,2,test,18,Q,0,,1887.63,0.0,1.0
24102802,cl_letter,2,test,19,Z,0,,1889.35,0.0,1.0
24102802,cl_letter,2,test,20,Z,1,0.705,1891.08,1.0,1.0
24102802,cl_letter,3,test,0,C,0,,1896.63,,
24102802,cl_letter,3,test,1,I,0,,1898.35,0.0,1.0
24102802,cl_letter,3,test,2,P,0,,1900.08,0.0,1.0
24102802,cl_letter,3,test,3,G,0,,1901.81,0.0,1.0
24102802,cl_letter,3,test,4,B,0,,1903.53,0.0,1.0
24102802,cl_letter,3,test,5,L,0,,1905.26,0.0,1.0
24102802,cl_letter,3,test,6,W,0,,1906.98,0.0,1.0
24102802,cl_letter,3,test,7,N,0,,1908.71,0.0,1.0
24102802,cl_letter,3,test,8,D,0,,1910.44,0.0,1.0
24102802,cl_letter,3,test,9,U,0,,1912.16,0.0,1.0
24102802,cl_letter,3,test,10,U,1,0.573,1913.88,1.0,1.0
24102802,cl_letter,3,test,11,R,0,,1915.6,0.0,1.0
24102802,cl_letter,3,test,12,G,0,,1917.33,0.0,1.0
24102802,cl_letter,3,test,13,O,0,,1919.05,0.0,1.0
24102802,cl_letter,3,test,14,C,0,,1920.77,0.0,1.0
24102802,cl_letter,3,test,15,A,0,,1922.49,0.0,1.0
24102802,cl_letter,3,test,16,E,0,,1924.22,0.0,1.0
24102802,cl_letter,3,test,17,B,0,,1925.94,0.0,1.0
24102802,cl_letter,3,test,18,H,0,,1927.66,0.0,1.0
24102802,cl_letter,3,test,19,J,0,,1929.39,0.0,1.0
24102802,cl_letter,3,test,20,X,0,,1931.11,0.0,1.0
24102802,cl_letter,4,test,0,Z,0,,1936.56,,
24102802,cl_letter,4,test,1,R,0,,1938.29,0.0,1.0
24102802,cl_letter,4,test,2,T,0,,1940.01,0.0,1.0
24102802,cl_letter,4,test,3,G,0,,1941.74,0.0,1.0
24102802,cl_letter,4,test,4,I,0,,1943.46,0.0,1.0
24102802,cl_letter,4,test,5,Y,0,,1945.19,0.0,1.0
24102802,cl_letter,4,test,6,S,0,,1946.91,0.0,1.0
24102802,cl_letter,4,test,7,H,0,,1948.64,0.0,1.0
24102802,cl_letter,4,test,8,Q,0,,1950.36,0.0,1.0
24102802,cl_letter,4,test,9,T,0,,1952.08,0.0,1.0
24102802,cl_letter,4,test,10,C,0,,1953.81,0.0,1.0
24102802,cl_letter,4,test,11,J,0,,1955.53,0.0,1.0
24102802,cl_letter,4,test,12,U,0,,1957.26,0.0,1.0
24102802,cl_letter,4,test,13,U,0,,1958.98,1.0,0.0
24102802,cl_letter,4,test,14,L,1,0.103,1960.7,0.0,0.0
24102802,cl_letter,4,test,15,Z,0,,1962.43,0.0,1.0
24102802,cl_letter,4,test,16,K,1,0.105,1964.15,0.0,0.0
24102802,cl_letter,4,test,17,V,0,,1965.88,0.0,1.0
24102802,cl_letter,4,test,18,B,0,,1967.6,0.0,1.0
24102802,cl_letter,4,test,19,E,0,,1969.33,0.0,1.0
24102802,cl_letter,4,test,20,M,0,,1971.05,0.0,1.0
24102802,cl_letter,5,test,0,T,0,,1976.57,,
24102802,cl_letter,5,test,1,A,0,,1978.3,0.0,1.0
24102802,cl_letter,5,test,2,H,0,,1980.02,0.0,1.0
24102802,cl_letter,5,test,3,F,0,,1981.75,0.0,1.0
24102802,cl_letter,5,test,4,J,0,,1983.47,0.0,1.0
24102802,cl_letter,5,test,5,Q,0,,1985.2,0.0,1.0
24102802,cl_letter,5,test,6,Z,0,,1986.92,0.0,1.0
24102802,cl_letter,5,test,7,Z,1,0.623,1988.65,1.0,1.0
24102802,cl_letter,5,test,8,C,0,,1990.37,0.0,1.0
24102802,cl_letter,5,test,9,A,1,0.472,1992.09,0.0,0.0
24102802,cl_letter,5,test,10,B,0,,1993.82,0.0,1.0
24102802,cl_letter,5,test,11,B,1,0.609,1995.54,1.0,1.0
24102802,cl_letter,5,test,12,B,1,0.545,1997.26,1.0,1.0
24102802,cl_letter,5,test,13,B,1,0.533,1998.98,1.0,1.0
24102802,cl_letter,5,test,14,G,0,,2000.71,0.0,1.0
24102802,cl_letter,5,test,15,G,0,,2002.43,1.0,0.0
24102802,cl_letter,5,test,16,Q,1,0.103,2004.16,0.0,0.0
24102802,cl_letter,5,test,17,T,1,0.607,2005.88,0.0,0.0
24102802,cl_letter,5,test,18,I,0,,2007.61,0.0,1.0
24102802,cl_letter,5,test,19,K,0,,2009.33,0.0,1.0
24102802,cl_letter,5,test,20,R,1,0.738,2011.06,0.0,0.0
24102802,cl_letter,6,test,0,M,0,,2016.66,,
24102802,cl_letter,6,test,1,A,0,,2018.39,0.0,1.0
24102802,cl_letter,6,test,2,A,1,0.487,2020.11,1.0,1.0
24102802,cl_letter,6,test,3,S,0,,2021.84,0.0,1.0
24102802,cl_letter,6,test,4,V,0,,2023.56,0.0,1.0
24102802,cl_letter,6,test,5,V,1,0.431,2025.29,1.0,1.0
24102802,cl_letter,6,test,6,J,0,,2027.01,0.0,1.0
24102802,cl_letter,6,test,7,D,0,,2028.74,0.0,1.0
24102802,cl_letter,6,test,8,I,0,,2030.46,0.0,1.0
24102802,cl_letter,6,test,9,X,0,,2032.19,0.0,1.0
24102802,cl_letter,6,test,10,H,1,0.811,2033.91,0.0,0.0
24102802,cl_letter,6,test,11,E,0,,2035.64,0.0,1.0
24102802,cl_letter,6,test,12,E,1,0.627,2037.36,1.0,1.0
24102802,cl_letter,6,test,13,L,0,,2039.09,0.0,1.0
24102802,cl_letter,6,test,14,D,0,,2040.81,0.0,1.0
24102802,cl_letter,6,test,15,K,0,,2042.53,0.0,1.0
24102802,cl_letter,6,test,16,O,0,,2044.26,0.0,1.0
24102802,cl_letter,6,test,17,P,0,,2045.99,0.0,1.0
24102802,cl_letter,6,test,18,E,0,,2047.71,0.0,1.0
24102802,cl_letter,6,test,19,I,0,,2049.43,0.0,1.0
24102802,cl_letter,6,test,20,W,0,,2051.16,0.0,1.0
24102802,cl_letter,7,test,0,L,0,,2056.85,,
24102802,cl_letter,7,test,1,Y,0,,2058.58,0.0,1.0
24102802,cl_letter,7,test,2,H,0,,2060.31,0.0,1.0
24102802,cl_letter,7,test,3,Z,0,,2062.03,0.0,1.0
24102802,cl_letter,7,test,4,T,0,,2063.75,0.0,1.0
24102802,cl_letter,7,test,5,S,0,,2065.48,0.0,1.0
24102802,cl_letter,7,test,6,U,0,,2067.2,0.0,1.0
24102802,cl_letter,7,test,7,U,0,,2068.93,1.0,0.0
24102802,cl_letter,7,test,8,U,1,0.788,2070.65,1.0,1.0
24102802,cl_letter,7,test,9,D,0,,2072.37,0.0,1.0
24102802,cl_letter,7,test,10,D,1,0.645,2074.1,1.0,1.0
24102802,cl_letter,7,test,11,F,0,,2075.82,0.0,1.0
24102802,cl_letter,7,test,12,P,0,,2077.54,0.0,1.0
24102802,cl_letter,7,test,13,H,0,,2079.26,0.0,1.0
24102802,cl_letter,7,test,14,M,0,,2080.99,0.0,1.0
24102802,cl_letter,7,test,15,W,0,,2082.72,0.0,1.0
24102802,cl_letter,7,test,16,X,0,,2084.44,0.0,1.0
24102802,cl_letter,7,test,17,V,0,,2086.16,0.0,1.0
24102802,cl_letter,7,test,18,A,0,,2087.89,0.0,1.0
24102802,cl_letter,7,test,19,H,0,,2089.61,0.0,1.0
24102802,cl_letter,7,test,20,B,0,,2091.34,0.0,1.0
24102802,cl_letter,8,test,0,C,0,,2097.51,,
24102802,cl_letter,8,test,1,G,0,,2099.23,0.0,1.0
24102802,cl_letter,8,test,2,K,1,0.104,2100.97,0.0,0.0
24102802,cl_letter,8,test,3,K,1,0.613,2102.69,1.0,1.0
24102802,cl_letter,8,test,4,T,0,,2104.41,0.0,1.0
24102802,cl_letter,8,test,5,V,0,,2106.14,0.0,1.0
24102802,cl_letter,8,test,6,V,0,,2107.86,1.0,0.0
24102802,cl_letter,8,test,7,R,0,,2109.58,0.0,1.0
24102802,cl_letter,8,test,8,B,0,,2111.31,0.0,1.0
24102802,cl_letter,8,test,9,N,0,,2113.03,0.0,1.0
24102802,cl_letter,8,test,10,Y,0,,2114.76,0.0,1.0
24102802,cl_letter,8,test,11,Y,1,0.887,2116.48,1.0,1.0
24102802,cl_letter,8,test,12,F,0,,2118.2,0.0,1.0
24102802,cl_letter,8,test,13,F,1,0.854,2119.93,1.0,1.0
24102802,cl_letter,8,test,14,Q,0,,2121.65,0.0,1.0
24102802,cl_letter,8,test,15,P,0,,2123.38,0.0,1.0
24102802,cl_letter,8,test,16,U,0,,2125.11,0.0,1.0
24102802,cl_letter,8,test,17,S,0,,2126.83,0.0,1.0
24102802,cl_letter,8,test,18,X,0,,2128.56,0.0,1.0
24102802,cl_letter,8,test,19,X,0,,2130.28,1.0,0.0
24102802,cl_letter,8,test,20,Y,1,0.103,2132.0,0.0,0.0
24102802,cl_letter,9,test,0,A,0,,2138.5,,
24102802,cl_letter,9,test,1,M,0,,2140.22,0.0,1.0
24102802,cl_letter,9,test,2,D,0,,2141.95,0.0,1.0
24102802,cl_letter,9,test,3,R,0,,2143.67,0.0,1.0
24102802,cl_letter,9,test,4,G,0,,2145.4,0.0,1.0
24102802,cl_letter,9,test,5,Y,0,,2147.12,0.0,1.0
24102802,cl_letter,9,test,6,Y,0,,2148.85,1.0,0.0
24102802,cl_letter,9,test,7,N,1,0.103,2150.57,0.0,0.0
24102802,cl_letter,9,test,8,N,0,,2152.29,1.0,0.0
24102802,cl_letter,9,test,9,N,1,0.654,2154.01,1.0,1.0
24102802,cl_letter,9,test,10,U,0,,2155.74,0.0,1.0
24102802,cl_letter,9,test,11,F,0,,2157.46,0.0,1.0
24102802,cl_letter,9,test,12,O,0,,2159.19,0.0,1.0
24102802,cl_letter,9,test,13,R,0,,2160.91,0.0,1.0
24102802,cl_letter,9,test,14,Z,0,,2162.63,0.0,1.0
24102802,cl_letter,9,test,15,G,0,,2164.36,0.0,1.0
24102802,cl_letter,9,test,16,D,0,,2166.08,0.0,1.0
24102802,cl_letter,9,test,17,C,0,,2167.8,0.0,1.0
24102802,cl_letter,9,test,18,S,0,,2169.53,0.0,1.0
24102802,cl_letter,9,test,19,F,0,,2171.25,0.0,1.0
24102802,cl_letter,9,test,20,M,0,,2172.97,0.0,1.0
24102802,cl_letter,10,test,0,E,0,,2179.29,,
24102802,cl_letter,10,test,1,E,1,0.713,2181.01,1.0,1.0
24102802,cl_letter,10,test,2,W,0,,2182.74,0.0,1.0
24102802,cl_letter,10,test,3,B,0,,2184.46,0.0,1.0
24102802,cl_letter,10,test,4,L,0,,2186.19,0.0,1.0
24102802,cl_letter,10,test,5,F,0,,2187.91,0.0,1.0
24102802,cl_letter,10,test,6,K,0,,2189.64,0.0,1.0
24102802,cl_letter,10,test,7,G,0,,2191.36,0.0,1.0
24102802,cl_letter,10,test,8,Y,0,,2193.09,0.0,1.0
24102802,cl_letter,10,test,9,J,0,,2194.81,0.0,1.0
24102802,cl_letter,10,test,10,T,0,,2196.54,0.0,1.0
24102802,cl_letter,10,test,11,H,0,,2198.26,0.0,1.0
24102802,cl_letter,10,test,12,E,0,,2199.98,0.0,1.0
24102802,cl_letter,10,test,13,R,0,,2201.71,0.0,1.0
24102802,cl_letter,10,test,14,O,0,,2203.43,0.0,1.0
24102802,cl_letter,10,test,15,K,0,,2205.16,0.0,1.0
24102802,cl_letter,10,test,16,T,0,,2206.88,0.0,1.0
24102802,cl_letter,10,test,17,V,0,,2208.61,0.0,1.0
24102802,cl_letter,10,test,18,W,0,,2210.33,0.0,1.0
24102802,cl_letter,10,test,19,H,0,,2212.05,0.0,1.0
24102802,cl_letter,10,test,20,C,0,,2213.78,0.0,1.0
