subject,condition,block,procedure,trial,item,response,RT,time,correct,accuracy
24103001,ed_fruits,1,test,0,assets\ed_fruits\lemon_1.png,0,,78.04,,
24103001,ed_fruits,1,test,1,assets\ed_fruits\mango_1.png,0,,79.87,0.0,1.0
24103001,ed_fruits,1,test,2,assets\ed_fruits\mango_1.png,1,0.533,81.65,1.0,1.0
24103001,ed_fruits,1,test,3,assets\ed_fruits\kiwi_1.png,0,,83.39,0.0,1.0
24103001,ed_fruits,1,test,4,assets\ed_fruits\cantaloupe_3.png,0,,85.14,0.0,1.0
24103001,ed_fruits,1,test,5,assets\ed_fruits\star_fruit_1.png,0,,86.9,0.0,1.0
24103001,ed_fruits,1,test,6,assets\ed_fruits\raspberry_3.png,0,,88.66,0.0,1.0
24103001,ed_fruits,1,test,7,assets\ed_fruits\mulberry_1.png,0,,90.4,0.0,1.0
24103001,ed_fruits,1,test,8,assets\ed_fruits\kiwi_2.png,0,,92.16,0.0,1.0
24103001,ed_fruits,1,test,9,assets\ed_fruits\mango_2.png,0,,94.31,0.0,1.0
24103001,ed_fruits,1,test,10,assets\ed_fruits\prune_1.png,0,,96.05,0.0,1.0
24103001,ed_fruits,1,test,11,assets\ed_fruits\prune_1.png,1,0.367,97.78,1.0,1.0
24103001,ed_fruits,1,test,12,assets\ed_fruits\peach_1.png,0,,99.53,0.0,1.0
24103001,ed_fruits,1,test,13,assets\ed_fruits\pineapple_1.png,0,,101.36,0.0,1.0
24103001,ed_fruits,1,test,14,assets\ed_fruits\star_fruit_2.png,0,,103.11,0.0,1.0
24103001,ed_fruits,1,test,15,assets\ed_fruits\blackberry_3.png,0,,104.85,0.0,1.0
24103001,ed_fruits,1,test,16,assets\ed_fruits\watermelon_1.png,0,,106.6,0.0,1.0
24103001,ed_fruits,1,test,17,assets\ed_fruits\apple_3.png,0,,108.34,0.0,1.0
24103001,ed_fruits,1,test,18,assets\ed_fruits\mango_3.png,0,,110.13,0.0,1.0
24103001,ed_fruits,1,test,19,assets\ed_fruits\papaya_3.png,0,,111.89,0.0,1.0
24103001,ed_fruits,1,test,20,assets\ed_fruits\mulberry_3.png,0,,113.67,0.0,1.0
24103001,ed_fruits,2,test,0,assets\ed_fruits\pineapple_3.png,0,,122.13,,
24103001,ed_fruits,2,test,1,assets\ed_fruits\pineapple_2.png,0,,124.08,0.0,1.0
24103001,ed_fruits,2,test,2,assets\ed_fruits\lemon_3.png,0,,125.83,0.0,1.0
24103001,ed_fruits,2,test,3,assets\ed_fruits\pear_1.png,0,,127.58,0.0,1.0
24103001,ed_fruits,2,test,4,assets\ed_fruits\raspberry_2.png,0,,129.33,0.0,1.0
24103001,ed_fruits,2,test,5,assets\ed_fruits\raspberry_2.png,1,0.591,131.06,1.0,1.0
24103001,ed_fruits,2,test,6,assets\ed_fruits\raspberry_2.png,1,0.688,132.79,1.0,1.0
24103001,ed_fruits,2,test,7,assets\ed_fruits\pomegranate_3.png,0,,134.54,0.0,1.0
24103001,ed_fruits,2,test,8,assets\ed_fruits\grapefruit_3.png,0,,136.37,0.0,1.0
24103001,ed_fruits,2,test,9,assets\ed_fruits\grapefruit_2.png,0,,138.17,0.0,1.0
24103001,ed_fruits,2,test,10,assets\ed_fruits\cantaloupe_1.png,0,,139.92,0.0,1.0
24103001,ed_fruits,2,test,11,assets\ed_fruits\grapefruit_1.png,0,,141.72,0.0,1.0
24103001,ed_fruits,2,test,12,assets\ed_fruits\blueberry_2.png,0,,143.53,0.0,1.0
24103001,ed_fruits,2,test,13,assets\ed_fruits\cranberry_2.png,0,,145.27,0.0,1.0
24103001,ed_fruits,2,test,14,assets\ed_fruits\apple_1.png,0,,147.02,0.0,1.0
24103001,ed_fruits,2,test,15,assets\ed_fruits\cranberry_1.png,0,,148.8,0.0,1.0
24103001,ed_fruits,2,test,16,assets\ed_fruits\pear_2.png,0,,150.55,0.0,1.0
24103001,ed_fruits,2,test,17,assets\ed_fruits\blueberry_1.png,0,,152.33,0.0,1.0
24103001,ed_fruits,2,test,18,assets\ed_fruits\kiwi_1.png,0,,154.06,0.0,1.0
24103001,ed_fruits,2,test,19,assets\ed_fruits\pomegranate_2.png,0,,155.87,0.0,1.0
24103001,ed_fruits,2,test,20,assets\ed_fruits\pear_3.png,0,,157.62,0.0,1.0
24103001,ed_fruits,3,test,0,assets\ed_fruits\mulberry_2.png,0,,166.82,,
24103001,ed_fruits,3,test,1,assets\ed_fruits\watermelon_2.png,0,,168.57,0.0,1.0
24103001,ed_fruits,3,test,2,assets\ed_fruits\watermelon_2.png,1,0.553,170.3,1.0,1.0
24103001,ed_fruits,3,test,3,assets\ed_fruits\watermelon_2.png,1,0.545,172.03,1.0,1.0
24103001,ed_fruits,3,test,4,assets\ed_fruits\melon_1.png,0,,173.79,0.0,1.0
24103001,ed_fruits,3,test,5,assets\ed_fruits\lemon_2.png,0,,175.54,0.0,1.0
24103001,ed_fruits,3,test,6,assets\ed_fruits\prune_3.png,0,,177.33,0.0,1.0
24103001,ed_fruits,3,test,7,assets\ed_fruits\peach_2.png,0,,179.08,0.0,1.0
24103001,ed_fruits,3,test,8,assets\ed_fruits\peach_1.png,0,,180.81,0.0,1.0
24103001,ed_fruits,3,test,9,assets\ed_fruits\melon_2.png,0,,182.59,0.0,1.0
24103001,ed_fruits,3,test,10,assets\ed_fruits\kiwi_2.png,0,,184.33,0.0,1.0
24103001,ed_fruits,3,test,11,assets\ed_fruits\kiwi_2.png,1,0.628,186.07,1.0,1.0
24103001,ed_fruits,3,test,12,assets\ed_fruits\papaya_2.png,0,,187.82,0.0,1.0
24103001,ed_fruits,3,test,13,assets\ed_fruits\papaya_2.png,1,0.672,189.56,1.0,1.0
24103001,ed_fruits,3,test,14,assets\ed_fruits\pineapple_1.png,0,,191.41,0.0,1.0
24103001,ed_fruits,3,test,15,assets\ed_fruits\peach_3.png,0,,193.15,0.0,1.0
24103001,ed_fruits,3,test,16,assets\ed_fruits\mango_3.png,0,,194.93,0.0,1.0
24103001,ed_fruits,3,test,17,assets\ed_fruits\blueberry_3.png,0,,196.69,0.0,1.0
24103001,ed_fruits,3,test,18,assets\ed_fruits\cantaloupe_3.png,0,,198.43,0.0,1.0
24103001,ed_fruits,3,test,19,assets\ed_fruits\raspberry_3.png,0,,200.17,0.0,1.0
24103001,ed_fruits,3,test,20,assets\ed_fruits\papaya_3.png,0,,201.92,0.0,1.0
24103001,ed_fruits,4,test,0,assets\ed_fruits\papaya_1.png,0,,211.44,,
24103001,ed_fruits,4,test,1,assets\ed_fruits\papaya_1.png,1,0.442,213.18,1.0,1.0
24103001,ed_fruits,4,test,2,assets\ed_fruits\apple_2.png,0,,215.14,0.0,1.0
24103001,ed_fruits,4,test,3,assets\ed_fruits\pineapple_3.png,0,,217.09,0.0,1.0
24103001,ed_fruits,4,test,4,assets\ed_fruits\pomegranate_3.png,0,,218.83,0.0,1.0
24103001,ed_fruits,4,test,5,assets\ed_fruits\raspberry_1.png,0,,220.59,0.0,1.0
24103001,ed_fruits,4,test,6,assets\ed_fruits\star_fruit_1.png,0,,222.34,0.0,1.0
24103001,ed_fruits,4,test,7,assets\ed_fruits\cranberry_2.png,0,,224.07,0.0,1.0
24103001,ed_fruits,4,test,8,assets\ed_fruits\lemon_3.png,0,,225.81,0.0,1.0
24103001,ed_fruits,4,test,9,assets\ed_fruits\watermelon_1.png,0,,227.55,0.0,1.0
24103001,ed_fruits,4,test,10,assets\ed_fruits\watermelon_3.png,0,,229.36,0.0,1.0
24103001,ed_fruits,4,test,11,assets\ed_fruits\mulberry_1.png,0,,231.09,0.0,1.0
24103001,ed_fruits,4,test,12,assets\ed_fruits\blueberry_1.png,0,,232.86,0.0,1.0
24103001,ed_fruits,4,test,13,assets\ed_fruits\melon_3.png,0,,234.62,0.0,1.0
24103001,ed_fruits,4,test,14,assets\ed_fruits\cranberry_1.png,0,,236.39,0.0,1.0
24103001,ed_fruits,4,test,15,assets\ed_fruits\pomegranate_1.png,0,,238.14,0.0,1.0
24103001,ed_fruits,4,test,16,assets\ed_fruits\blackberry_3.png,0,,239.87,0.0,1.0
24103001,ed_fruits,4,test,17,assets\ed_fruits\prune_1.png,0,,241.6,0.0,1.0
24103001,ed_fruits,4,test,18,assets\ed_fruits\prune_1.png,1,0.647,243.33,1.0,1.0
24103001,ed_fruits,4,test,19,assets\ed_fruits\blackberry_1.png,0,,245.07,0.0,1.0
24103001,ed_fruits,4,test,20,assets\ed_fruits\blackberry_1.png,1,0.451,246.8,1.0,1.0
24103001,ed_fruits,5,test,0,assets\ed_fruits\watermelon_2.png,0,,257.03,,
24103001,ed_fruits,5,test,1,assets\ed_fruits\mulberry_2.png,0,,258.81,0.0,1.0
24103001,ed_fruits,5,test,2,assets\ed_fruits\apple_3.png,0,,260.55,0.0,1.0
24103001,ed_fruits,5,test,3,assets\ed_fruits\peach_2.png,0,,262.28,0.0,1.0
24103001,ed_fruits,5,test,4,assets\ed_fruits\pear_2.png,0,,264.02,0.0,1.0
24103001,ed_fruits,5,test,5,assets\ed_fruits\lemon_1.png,0,,265.76,0.0,1.0
24103001,ed_fruits,5,test,6,assets\ed_fruits\lemon_1.png,1,0.706,267.51,1.0,1.0
24103001,ed_fruits,5,test,7,assets\ed_fruits\melon_2.png,0,,269.27,0.0,1.0
24103001,ed_fruits,5,test,8,assets\ed_fruits\lemon_2.png,0,,271.01,0.0,1.0
24103001,ed_fruits,5,test,9,assets\ed_fruits\lemon_2.png,1,0.477,272.75,1.0,1.0
24103001,ed_fruits,5,test,10,assets\ed_fruits\pineapple_1.png,0,,274.6,0.0,1.0
24103001,ed_fruits,5,test,11,assets\ed_fruits\pineapple_1.png,1,0.612,276.42,1.0,1.0
24103001,ed_fruits,5,test,12,assets\ed_fruits\grapefruit_1.png,0,,278.22,0.0,1.0
24103001,ed_fruits,5,test,13,assets\ed_fruits\cranberry_3.png,0,,280.01,0.0,1.0
24103001,ed_fruits,5,test,14,assets\ed_fruits\cantaloupe_1.png,0,,281.75,0.0,1.0
24103001,ed_fruits,5,test,15,assets\ed_fruits\prune_3.png,0,,283.52,0.0,1.0
24103001,ed_fruits,5,test,16,assets\ed_fruits\star_fruit_3.png,0,,285.27,0.0,1.0
24103001,ed_fruits,5,test,17,assets\ed_fruits\kiwi_3.png,0,,287.03,0.0,1.0
24103001,ed_fruits,5,test,18,assets\ed_fruits\pomegranate_2.png,0,,288.85,0.0,1.0
24103001,ed_fruits,5,test,19,assets\ed_fruits\melon_1.png,0,,290.59,0.0,1.0
24103001,ed_fruits,5,test,20,assets\ed_fruits\raspberry_3.png,0,,292.33,0.0,1.0
24103001,ed_fruits,6,test,0,assets\ed_fruits\raspberry_2.png,0,,300.52,,
24103001,ed_fruits,6,test,1,assets\ed_fruits\pear_3.png,0,,302.26,0.0,1.0
24103001,ed_fruits,6,test,2,assets\ed_fruits\pear_3.png,1,0.613,303.99,1.0,1.0
24103001,ed_fruits,6,test,3,assets\ed_fruits\papaya_3.png,0,,305.74,0.0,1.0
24103001,ed_fruits,6,test,4,assets\ed_fruits\apple_2.png,0,,307.69,0.0,1.0
24103001,ed_fruits,6,test,5,assets\ed_fruits\apple_2.png,1,0.878,309.57,1.0,1.0
24103001,ed_fruits,6,test,6,assets\ed_fruits\lemon_3.png,0,,311.31,0.0,1.0
24103001,ed_fruits,6,test,7,assets\ed_fruits\grapefruit_2.png,0,,313.09,0.0,1.0
24103001,ed_fruits,6,test,8,assets\ed_fruits\blueberry_3.png,0,,314.83,0.0,1.0
24103001,ed_fruits,6,test,9,assets\ed_fruits\pomegranate_3.png,0,,316.56,0.0,1.0
24103001,ed_fruits,6,test,10,assets\ed_fruits\cantaloupe_2.png,0,,318.31,0.0,1.0
24103001,ed_fruits,6,test,11,assets\ed_fruits\papaya_1.png,0,,320.05,0.0,1.0
24103001,ed_fruits,6,test,12,assets\ed_fruits\watermelon_1.png,0,,321.79,0.0,1.0
24103001,ed_fruits,6,test,13,assets\ed_fruits\grapefruit_3.png,0,,323.58,0.0,1.0
24103001,ed_fruits,6,test,14,assets\ed_fruits\grapefruit_3.png,1,0.642,325.36,1.0,1.0
24103001,ed_fruits,6,test,15,assets\ed_fruits\mulberry_1.png,0,,327.1,0.0,1.0
24103001,ed_fruits,6,test,16,assets\ed_fruits\watermelon_3.png,0,,328.88,0.0,1.0
24103001,ed_fruits,6,test,17,assets\ed_fruits\prune_2.png,0,,331.15,0.0,1.0
24103001,ed_fruits,6,test,18,assets\ed_fruits\prune_1.png,0,,332.88,0.0,1.0
24103001,ed_fruits,6,test,19,assets\ed_fruits\cantaloupe_3.png,0,,334.62,0.0,1.0
24103001,ed_fruits,6,test,20,assets\ed_fruits\mango_1.png,0,,336.39,0.0,1.0
24103001,ed_fruits,7,test,0,assets\ed_fruits\kiwi_1.png,0,,346.05,,
24103001,ed_fruits,7,test,1,assets\ed_fruits\apple_3.png,0,,347.79,0.0,1.0
24103001,ed_fruits,7,test,2,assets\ed_fruits\mango_3.png,0,,349.56,0.0,1.0
24103001,ed_fruits,7,test,3,assets\ed_fruits\cranberry_1.png,0,,351.32,0.0,1.0
24103001,ed_fruits,7,test,4,assets\ed_fruits\mango_2.png,0,,353.43,0.0,1.0
24103001,ed_fruits,7,test,5,assets\ed_fruits\watermelon_2.png,0,,355.16,0.0,1.0
24103001,ed_fruits,7,test,6,assets\ed_fruits\papaya_2.png,0,,356.9,0.0,1.0
24103001,ed_fruits,7,test,7,assets\ed_fruits\kiwi_2.png,0,,358.64,0.0,1.0
24103001,ed_fruits,7,test,8,assets\ed_fruits\pear_2.png,0,,360.38,0.0,1.0
24103001,ed_fruits,7,test,9,assets\ed_fruits\peach_1.png,0,,362.11,0.0,1.0
24103001,ed_fruits,7,test,10,assets\ed_fruits\prune_3.png,0,,363.88,0.0,1.0
24103001,ed_fruits,7,test,11,assets\ed_fruits\blueberry_2.png,0,,365.71,0.0,1.0
24103001,ed_fruits,7,test,12,assets\ed_fruits\kiwi_3.png,0,,367.45,0.0,1.0
24103001,ed_fruits,7,test,13,assets\ed_fruits\pineapple_3.png,0,,369.41,0.0,1.0
24103001,ed_fruits,7,test,14,assets\ed_fruits\apple_1.png,0,,371.15,0.0,1.0
24103001,ed_fruits,7,test,15,assets\ed_fruits\blackberry_2.png,0,,372.9,0.0,1.0
24103001,ed_fruits,7,test,16,assets\ed_fruits\pineapple_1.png,0,,374.75,0.0,1.0
24103001,ed_fruits,7,test,17,assets\ed_fruits\pineapple_1.png,1,0.675,376.57,1.0,1.0
24103001,ed_fruits,7,test,18,assets\ed_fruits\pineapple_2.png,0,,378.5,0.0,1.0
24103001,ed_fruits,7,test,19,assets\ed_fruits\grapefruit_1.png,0,,380.28,0.0,1.0
24103001,ed_fruits,7,test,20,assets\ed_fruits\star_fruit_1.png,0,,382.02,0.0,1.0
24103001,ed_fruits,8,test,0,assets\ed_fruits\pear_3.png,0,,390.03,,
24103001,ed_fruits,8,test,1,assets\ed_fruits\pomegranate_1.png,0,,391.77,0.0,1.0
24103001,ed_fruits,8,test,2,assets\ed_fruits\pomegranate_1.png,1,0.691,393.51,1.0,1.0
24103001,ed_fruits,8,test,3,assets\ed_fruits\star_fruit_3.png,0,,395.24,0.0,1.0
24103001,ed_fruits,8,test,4,assets\ed_fruits\pomegranate_3.png,0,,396.98,0.0,1.0
24103001,ed_fruits,8,test,5,assets\ed_fruits\star_fruit_2.png,0,,398.72,0.0,1.0
24103001,ed_fruits,8,test,6,assets\ed_fruits\star_fruit_2.png,1,0.636,400.46,1.0,1.0
24103001,ed_fruits,8,test,7,assets\ed_fruits\raspberry_2.png,0,,402.18,0.0,1.0
24103001,ed_fruits,8,test,8,assets\ed_fruits\melon_2.png,0,,403.94,0.0,1.0
24103001,ed_fruits,8,test,9,assets\ed_fruits\papaya_3.png,0,,405.69,0.0,1.0
24103001,ed_fruits,8,test,10,assets\ed_fruits\papaya_3.png,1,0.488,407.44,1.0,1.0
24103001,ed_fruits,8,test,11,assets\ed_fruits\raspberry_1.png,0,,409.19,0.0,1.0
24103001,ed_fruits,8,test,12,assets\ed_fruits\raspberry_1.png,1,0.64,410.93,1.0,1.0
24103001,ed_fruits,8,test,13,assets\ed_fruits\grapefruit_2.png,0,,412.71,0.0,1.0
24103001,ed_fruits,8,test,14,assets\ed_fruits\blackberry_3.png,0,,414.44,0.0,1.0
24103001,ed_fruits,8,test,15,assets\ed_fruits\blackberry_1.png,0,,416.17,0.0,1.0
24103001,ed_fruits,8,test,16,assets\ed_fruits\cantaloupe_1.png,0,,417.91,0.0,1.0
24103001,ed_fruits,8,test,17,assets\ed_fruits\cantaloupe_3.png,0,,419.65,0.0,1.0
24103001,ed_fruits,8,test,18,assets\ed_fruits\prune_2.png,0,,421.89,0.0,1.0
24103001,ed_fruits,8,test,19,assets\ed_fruits\cranberry_3.png,0,,423.67,0.0,1.0
24103001,ed_fruits,8,test,20,assets\ed_fruits\watermelon_3.png,0,,425.43,0.0,1.0
24103001,ed_fruits,9,test,0,assets\ed_fruits\watermelon_2.png,0,,433.5,,
24103001,ed_fruits,9,test,1,assets\ed_fruits\mango_3.png,0,,435.26,0.0,1.0
24103001,ed_fruits,9,test,2,assets\ed_fruits\kiwi_1.png,0,,436.99,0.0,1.0
24103001,ed_fruits,9,test,3,assets\ed_fruits\cantaloupe_2.png,0,,438.73,0.0,1.0
24103001,ed_fruits,9,test,4,assets\ed_fruits\prune_1.png,0,,440.46,0.0,1.0
24103001,ed_fruits,9,test,5,assets\ed_fruits\lemon_3.png,0,,442.2,0.0,1.0
24103001,ed_fruits,9,test,6,assets\ed_fruits\mulberry_3.png,0,,443.95,0.0,1.0
24103001,ed_fruits,9,test,7,assets\ed_fruits\mango_1.png,0,,445.72,0.0,1.0
24103001,ed_fruits,9,test,8,assets\ed_fruits\mango_2.png,0,,447.82,0.0,1.0
24103001,ed_fruits,9,test,9,assets\ed_fruits\apple_1.png,0,,449.56,0.0,1.0
24103001,ed_fruits,9,test,10,assets\ed_fruits\blueberry_1.png,0,,451.33,0.0,1.0
24103001,ed_fruits,9,test,11,assets\ed_fruits\peach_2.png,0,,453.07,0.0,1.0
24103001,ed_fruits,9,test,12,assets\ed_fruits\peach_3.png,0,,454.8,0.0,1.0
24103001,ed_fruits,9,test,13,assets\ed_fruits\grapefruit_3.png,0,,456.58,0.0,1.0
24103001,ed_fruits,9,test,14,assets\ed_fruits\blackberry_2.png,0,,458.32,0.0,1.0
24103001,ed_fruits,9,test,15,assets\ed_fruits\cranberry_2.png,0,,460.05,0.0,1.0
24103001,ed_fruits,9,test,16,assets\ed_fruits\pear_3.png,0,,461.78,0.0,1.0
24103001,ed_fruits,9,test,17,assets\ed_fruits\raspberry_3.png,0,,463.53,0.0,1.0
24103001,ed_fruits,9,test,18,assets\ed_fruits\pineapple_2.png,0,,465.46,0.0,1.0
24103001,ed_fruits,9,test,19,assets\ed_fruits\lemon_1.png,0,,467.2,0.0,1.0
24103001,ed_fruits,9,test,20,assets\ed_fruits\apple_2.png,0,,469.15,0.0,1.0
24103001,ed_fruits,10,test,0,assets\ed_fruits\blueberry_2.png,0,,477.19,,
24103001,ed_fruits,10,test,1,assets\ed_fruits\mulberry_2.png,0,,478.99,0.0,1.0
24103001,ed_fruits,10,test,2,assets\ed_fruits\mulberry_2.png,1,0.529,480.76,1.0,1.0
24103001,ed_fruits,10,test,3,assets\ed_fruits\pomegranate_1.png,0,,482.51,0.0,1.0
24103001,ed_fruits,10,test,4,assets\ed_fruits\kiwi_3.png,0,,484.25,0.0,1.0
24103001,ed_fruits,10,test,5,assets\ed_fruits\blackberry_1.png,0,,485.97,0.0,1.0
24103001,ed_fruits,10,test,6,assets\ed_fruits\blackberry_1.png,1,0.502,487.7,1.0,1.0
24103001,ed_fruits,10,test,7,assets\ed_fruits\raspberry_2.png,0,,489.43,0.0,1.0
24103001,ed_fruits,10,test,8,assets\ed_fruits\papaya_2.png,0,,491.17,0.0,1.0
24103001,ed_fruits,10,test,9,assets\ed_fruits\star_fruit_1.png,0,,492.91,0.0,1.0
24103001,ed_fruits,10,test,10,assets\ed_fruits\cranberry_1.png,0,,494.67,0.0,1.0
24103001,ed_fruits,10,test,11,assets\ed_fruits\grapefruit_2.png,0,,496.45,0.0,1.0
24103001,ed_fruits,10,test,12,assets\ed_fruits\melon_3.png,0,,498.21,0.0,1.0
24103001,ed_fruits,10,test,13,assets\ed_fruits\mango_3.png,0,,499.97,0.0,1.0
24103001,ed_fruits,10,test,14,assets\ed_fruits\lemon_2.png,0,,501.71,0.0,1.0
24103001,ed_fruits,10,test,15,assets\ed_fruits\pear_2.png,0,,503.45,0.0,1.0
24103001,ed_fruits,10,test,16,assets\ed_fruits\kiwi_1.png,0,,505.19,0.0,1.0
24103001,ed_fruits,10,test,17,assets\ed_fruits\blackberry_3.png,0,,506.92,0.0,1.0
24103001,ed_fruits,10,test,18,assets\ed_fruits\prune_2.png,0,,509.16,0.0,1.0
24103001,ed_fruits,10,test,19,assets\ed_fruits\pineapple_3.png,0,,511.11,0.0,1.0
24103001,ed_fruits,10,test,20,assets\ed_fruits\cranberry_3.png,0,,512.88,0.0,1.0
24103001,ed_clothing,1,test,0,assets\ed_clothing\jacket_3.png,0,,1136.96,,
24103001,ed_clothing,1,test,1,assets\ed_clothing\toga_3.png,0,,1138.71,0.0,1.0
24103001,ed_clothing,1,test,2,assets\ed_clothing\leggings_3.png,0,,1140.47,0.0,1.0
24103001,ed_clothing,1,test,3,assets\ed_clothing\glove_2.png,0,,1142.46,0.0,1.0
24103001,ed_clothing,1,test,4,assets\ed_clothing\leggings_2.png,0,,1144.21,0.0,1.0
24103001,ed_clothing,1,test,5,assets\ed_clothing\cloak_1.png,0,,1145.96,0.0,1.0
24103001,ed_clothing,1,test,6,assets\ed_clothing\tube_top_2.png,0,,1147.72,0.0,1.0
24103001,ed_clothing,1,test,7,assets\ed_clothing\nightshirt_3.png,0,,1149.48,0.0,1.0
24103001,ed_clothing,1,test,8,assets\ed_clothing\glove_3.png,0,,1151.46,0.0,1.0
24103001,ed_clothing,1,test,9,assets\ed_clothing\glove_3.png,1,0.528,1153.37,1.0,1.0
24103001,ed_clothing,1,test,10,assets\ed_clothing\fur_coat_2.png,0,,1155.14,0.0,1.0
24103001,ed_clothing,1,test,11,assets\ed_clothing\overalls_2.png,0,,1156.89,0.0,1.0
24103001,ed_clothing,1,test,12,assets\ed_clothing\overalls_1.png,0,,1158.63,0.0,1.0
24103001,ed_clothing,1,test,13,assets\ed_clothing\polo_shirt_1.png,0,,1160.41,0.0,1.0
24103001,ed_clothing,1,test,14,assets\ed_clothing\sock_3.png,0,,1162.16,0.0,1.0
24103001,ed_clothing,1,test,15,assets\ed_clothing\pajamas_3.png,0,,1163.91,0.0,1.0
24103001,ed_clothing,1,test,16,assets\ed_clothing\polo_shirt_2.png,0,,1165.67,0.0,1.0
24103001,ed_clothing,1,test,17,assets\ed_clothing\tube_top_3.png,0,,1167.45,0.0,1.0
24103001,ed_clothing,1,test,18,assets\ed_clothing\tube_top_1.png,0,,1169.19,0.0,1.0
24103001,ed_clothing,1,test,19,assets\ed_clothing\hoodie_1.png,0,,1170.96,0.0,1.0
24103001,ed_clothing,1,test,20,assets\ed_clothing\hoodie_1.png,1,0.48,1172.7,1.0,1.0
24103001,ed_clothing,2,test,0,assets\ed_clothing\overalls_3.png,0,,1180.9,,
24103001,ed_clothing,2,test,1,assets\ed_clothing\robe_2.png,0,,1182.85,0.0,1.0
24103001,ed_clothing,2,test,2,assets\ed_clothing\swimsuit_2.png,0,,1184.62,0.0,1.0
24103001,ed_clothing,2,test,3,assets\ed_clothing\jacket_2.png,0,,1186.41,0.0,1.0
24103001,ed_clothing,2,test,4,assets\ed_clothing\jumpsuit_1.png,0,,1188.15,0.0,1.0
24103001,ed_clothing,2,test,5,assets\ed_clothing\corset_2.png,0,,1189.99,0.0,1.0
24103001,ed_clothing,2,test,6,assets\ed_clothing\nightshirt_1.png,0,,1191.75,0.0,1.0
24103001,ed_clothing,2,test,7,assets\ed_clothing\polo_shirt_3.png,0,,1193.53,0.0,1.0
24103001,ed_clothing,2,test,8,assets\ed_clothing\lab_coat_2.png,0,,1195.28,0.0,1.0
24103001,ed_clothing,2,test,9,assets\ed_clothing\vest_2.png,0,,1197.05,0.0,1.0
24103001,ed_clothing,2,test,10,assets\ed_clothing\cloak_2.png,0,,1198.8,0.0,1.0
24103001,ed_clothing,2,test,11,assets\ed_clothing\blazer_3.png,0,,1200.56,0.0,1.0
24103001,ed_clothing,2,test,12,assets\ed_clothing\leggings_1.png,0,,1202.31,0.0,1.0
24103001,ed_clothing,2,test,13,assets\ed_clothing\glove_1.png,0,,1204.08,0.0,1.0
24103001,ed_clothing,2,test,14,assets\ed_clothing\hoodie_2.png,0,,1205.84,0.0,1.0
24103001,ed_clothing,2,test,15,assets\ed_clothing\hoodie_2.png,1,0.797,1207.59,1.0,1.0
24103001,ed_clothing,2,test,16,assets\ed_clothing\robe_1.png,0,,1209.6,0.0,1.0
24103001,ed_clothing,2,test,17,assets\ed_clothing\jumpsuit_2.png,0,,1211.39,0.0,1.0
24103001,ed_clothing,2,test,18,assets\ed_clothing\lab_coat_3.png,0,,1213.17,0.0,1.0
24103001,ed_clothing,2,test,19,assets\ed_clothing\leggings_3.png,0,,1214.92,0.0,1.0
24103001,ed_clothing,2,test,20,assets\ed_clothing\leggings_2.png,0,,1216.67,0.0,1.0
24103001,ed_clothing,3,test,0,assets\ed_clothing\nightshirt_2.png,0,,1224.18,,
24103001,ed_clothing,3,test,1,assets\ed_clothing\nightshirt_2.png,1,0.56,1225.91,1.0,1.0
24103001,ed_clothing,3,test,2,assets\ed_clothing\pajamas_2.png,0,,1227.68,0.0,1.0
24103001,ed_clothing,3,test,3,assets\ed_clothing\jacket_3.png,0,,1229.42,0.0,1.0
24103001,ed_clothing,3,test,4,assets\ed_clothing\sock_1.png,0,,1231.17,0.0,1.0
24103001,ed_clothing,3,test,5,assets\ed_clothing\fur_coat_1.png,0,,1232.96,0.0,1.0
24103001,ed_clothing,3,test,6,assets\ed_clothing\cloak_1.png,0,,1234.7,0.0,1.0
24103001,ed_clothing,3,test,7,assets\ed_clothing\pajamas_3.png,0,,1236.43,0.0,1.0
24103001,ed_clothing,3,test,8,assets\ed_clothing\blazer_1.png,0,,1238.18,0.0,1.0
24103001,ed_clothing,3,test,9,assets\ed_clothing\blazer_1.png,1,0.637,1239.91,1.0,1.0
24103001,ed_clothing,3,test,10,assets\ed_clothing\cloak_3.png,0,,1241.74,0.0,1.0
24103001,ed_clothing,3,test,11,assets\ed_clothing\glove_2.png,0,,1243.72,0.0,1.0
24103001,ed_clothing,3,test,12,assets\ed_clothing\fur_coat_2.png,0,,1245.46,0.0,1.0
24103001,ed_clothing,3,test,13,assets\ed_clothing\tube_top_3.png,0,,1247.24,0.0,1.0
24103001,ed_clothing,3,test,14,assets\ed_clothing\overalls_2.png,0,,1248.97,0.0,1.0
24103001,ed_clothing,3,test,15,assets\ed_clothing\overalls_1.png,0,,1250.71,0.0,1.0
24103001,ed_clothing,3,test,16,assets\ed_clothing\polo_shirt_2.png,0,,1252.45,0.0,1.0
24103001,ed_clothing,3,test,17,assets\ed_clothing\toga_1.png,0,,1254.19,0.0,1.0
24103001,ed_clothing,3,test,18,assets\ed_clothing\toga_1.png,1,0.662,1255.93,1.0,1.0
24103001,ed_clothing,3,test,19,assets\ed_clothing\tube_top_2.png,0,,1257.67,0.0,1.0
24103001,ed_clothing,3,test,20,assets\ed_clothing\robe_2.png,0,,1259.69,0.0,1.0
24103001,ed_clothing,4,test,0,assets\ed_clothing\jumpsuit_3.png,0,,1268.1,,
24103001,ed_clothing,4,test,1,assets\ed_clothing\toga_3.png,0,,1269.83,0.0,1.0
24103001,ed_clothing,4,test,2,assets\ed_clothing\corset_3.png,0,,1271.78,0.0,1.0
24103001,ed_clothing,4,test,3,assets\ed_clothing\vest_3.png,0,,1273.52,0.0,1.0
24103001,ed_clothing,4,test,4,assets\ed_clothing\polo_shirt_1.png,0,,1275.28,0.0,1.0
24103001,ed_clothing,4,test,5,assets\ed_clothing\pajamas_1.png,0,,1277.03,0.0,1.0
24103001,ed_clothing,4,test,6,assets\ed_clothing\cloak_2.png,0,,1278.77,0.0,1.0
24103001,ed_clothing,4,test,7,assets\ed_clothing\fur_coat_3.png,0,,1280.68,0.0,1.0
24103001,ed_clothing,4,test,8,assets\ed_clothing\hoodie_2.png,0,,1282.45,0.0,1.0
24103001,ed_clothing,4,test,9,assets\ed_clothing\overalls_3.png,0,,1284.19,0.0,1.0
24103001,ed_clothing,4,test,10,assets\ed_clothing\swimsuit_1.png,0,,1285.94,0.0,1.0
24103001,ed_clothing,4,test,11,assets\ed_clothing\hoodie_1.png,0,,1287.69,0.0,1.0
24103001,ed_clothing,4,test,12,assets\ed_clothing\jumpsuit_2.png,0,,1289.44,0.0,1.0
24103001,ed_clothing,4,test,13,assets\ed_clothing\sock_2.png,0,,1291.26,0.0,1.0
24103001,ed_clothing,4,test,14,assets\ed_clothing\polo_shirt_3.png,0,,1293.05,0.0,1.0
24103001,ed_clothing,4,test,15,assets\ed_clothing\jumpsuit_1.png,0,,1294.79,0.0,1.0
24103001,ed_clothing,4,test,16,assets\ed_clothing\corset_2.png,0,,1296.65,0.0,1.0
24103001,ed_clothing,4,test,17,assets\ed_clothing\sock_1.png,0,,1298.39,0.0,1.0
24103001,ed_clothing,4,test,18,assets\ed_clothing\nightshirt_1.png,0,,1300.15,0.0,1.0
24103001,ed_clothing,4,test,19,assets\ed_clothing\corset_1.png,0,,1302.0,0.0,1.0
24103001,ed_clothing,4,test,20,assets\ed_clothing\blazer_2.png,0,,1303.75,0.0,1.0
24103001,ed_clothing,5,test,0,assets\ed_clothing\leggings_2.png,0,,1312.87,,
24103001,ed_clothing,5,test,1,assets\ed_clothing\pajamas_2.png,0,,1314.62,0.0,1.0
24103001,ed_clothing,5,test,2,assets\ed_clothing\lab_coat_1.png,0,,1316.38,0.0,1.0
24103001,ed_clothing,5,test,3,assets\ed_clothing\nightshirt_2.png,0,,1318.12,0.0,1.0
24103001,ed_clothing,5,test,4,assets\ed_clothing\hoodie_3.png,0,,1319.87,0.0,1.0
24103001,ed_clothing,5,test,5,assets\ed_clothing\jacket_1.png,0,,1322.05,0.0,1.0
24103001,ed_clothing,5,test,6,assets\ed_clothing\jacket_2.png,0,,1323.83,0.0,1.0
24103001,ed_clothing,5,test,7,assets\ed_clothing\polo_shirt_2.png,0,,1325.58,0.0,1.0
24103001,ed_clothing,5,test,8,assets\ed_clothing\blazer_1.png,0,,1327.31,0.0,1.0
24103001,ed_clothing,5,test,9,assets\ed_clothing\sock_3.png,0,,1329.06,0.0,1.0
24103001,ed_clothing,5,test,10,assets\ed_clothing\blazer_3.png,0,,1330.82,0.0,1.0
24103001,ed_clothing,5,test,11,assets\ed_clothing\blazer_3.png,1,0.718,1332.57,1.0,1.0
24103001,ed_clothing,5,test,12,assets\ed_clothing\overalls_2.png,0,,1334.3,0.0,1.0
24103001,ed_clothing,5,test,13,assets\ed_clothing\vest_1.png,0,,1336.11,0.0,1.0
24103001,ed_clothing,5,test,14,assets\ed_clothing\toga_3.png,0,,1337.85,0.0,1.0
24103001,ed_clothing,5,test,15,assets\ed_clothing\swimsuit_3.png,0,,1339.64,0.0,1.0
24103001,ed_clothing,5,test,16,assets\ed_clothing\glove_2.png,0,,1341.62,0.0,1.0
24103001,ed_clothing,5,test,17,assets\ed_clothing\robe_3.png,0,,1343.77,0.0,1.0
24103001,ed_clothing,5,test,18,assets\ed_clothing\cloak_2.png,0,,1345.5,0.0,1.0
24103001,ed_clothing,5,test,19,assets\ed_clothing\overalls_1.png,0,,1347.24,0.0,1.0
24103001,ed_clothing,5,test,20,assets\ed_clothing\toga_2.png,0,,1349.01,0.0,1.0
24103001,ed_clothing,6,test,0,assets\ed_clothing\pajamas_3.png,0,,1358.64,,
24103001,ed_clothing,6,test,1,assets\ed_clothing\corset_3.png,0,,1360.56,0.0,1.0
24103001,ed_clothing,6,test,2,assets\ed_clothing\polo_shirt_1.png,0,,1362.31,0.0,1.0
24103001,ed_clothing,6,test,3,assets\ed_clothing\pajamas_1.png,0,,1364.04,0.0,1.0
24103001,ed_clothing,6,test,4,assets\ed_clothing\toga_1.png,0,,1365.79,0.0,1.0
24103001,ed_clothing,6,test,5,assets\ed_clothing\vest_2.png,0,,1367.55,0.0,1.0
24103001,ed_clothing,6,test,6,assets\ed_clothing\jumpsuit_2.png,0,,1369.32,0.0,1.0
24103001,ed_clothing,6,test,7,assets\ed_clothing\tube_top_3.png,0,,1371.09,0.0,1.0
24103001,ed_clothing,6,test,8,assets\ed_clothing\leggings_3.png,0,,1372.84,0.0,1.0
24103001,ed_clothing,6,test,9,assets\ed_clothing\glove_3.png,0,,1374.82,0.0,1.0
24103001,ed_clothing,6,test,10,assets\ed_clothing\robe_2.png,0,,1376.83,0.0,1.0
24103001,ed_clothing,6,test,11,assets\ed_clothing\lab_coat_2.png,0,,1378.57,0.0,1.0
24103001,ed_clothing,6,test,12,assets\ed_clothing\sock_2.png,0,,1380.4,0.0,1.0
24103001,ed_clothing,6,test,13,assets\ed_clothing\swimsuit_1.png,0,,1382.14,0.0,1.0
24103001,ed_clothing,6,test,14,assets\ed_clothing\hoodie_2.png,0,,1383.89,0.0,1.0
24103001,ed_clothing,6,test,15,assets\ed_clothing\lab_coat_3.png,0,,1385.65,0.0,1.0
24103001,ed_clothing,6,test,16,assets\ed_clothing\vest_3.png,0,,1387.39,0.0,1.0
24103001,ed_clothing,6,test,17,assets\ed_clothing\corset_1.png,0,,1389.2,0.0,1.0
24103001,ed_clothing,6,test,18,assets\ed_clothing\jacket_3.png,0,,1390.95,0.0,1.0
24103001,ed_clothing,6,test,19,assets\ed_clothing\leggings_2.png,0,,1392.69,0.0,1.0
24103001,ed_clothing,6,test,20,assets\ed_clothing\overalls_3.png,0,,1394.43,0.0,1.0
24103001,ed_clothing,7,test,0,assets\ed_clothing\nightshirt_3.png,0,,1404.58,,
24103001,ed_clothing,7,test,1,assets\ed_clothing\jumpsuit_1.png,0,,1406.31,0.0,1.0
24103001,ed_clothing,7,test,2,assets\ed_clothing\glove_1.png,0,,1408.06,0.0,1.0
24103001,ed_clothing,7,test,3,assets\ed_clothing\glove_1.png,1,0.648,1409.8,1.0,1.0
24103001,ed_clothing,7,test,4,assets\ed_clothing\polo_shirt_2.png,0,,1411.54,0.0,1.0
24103001,ed_clothing,7,test,5,assets\ed_clothing\overalls_2.png,0,,1413.28,0.0,1.0
24103001,ed_clothing,7,test,6,assets\ed_clothing\corset_2.png,0,,1415.1,0.0,1.0
24103001,ed_clothing,7,test,7,assets\ed_clothing\hoodie_3.png,0,,1416.84,0.0,1.0
24103001,ed_clothing,7,test,8,assets\ed_clothing\sock_1.png,0,,1418.58,0.0,1.0
24103001,ed_clothing,7,test,9,assets\ed_clothing\cloak_3.png,0,,1420.4,0.0,1.0
24103001,ed_clothing,7,test,10,assets\ed_clothing\lab_coat_1.png,0,,1422.13,0.0,1.0
24103001,ed_clothing,7,test,11,assets\ed_clothing\pajamas_3.png,0,,1423.86,0.0,1.0
24103001,ed_clothing,7,test,12,assets\ed_clothing\blazer_2.png,0,,1425.6,0.0,1.0
24103001,ed_clothing,7,test,13,assets\ed_clothing\nightshirt_2.png,0,,1427.33,0.0,1.0
24103001,ed_clothing,7,test,14,assets\ed_clothing\pajamas_1.png,0,,1429.07,0.0,1.0
24103001,ed_clothing,7,test,15,assets\ed_clothing\tube_top_2.png,0,,1430.81,0.0,1.0
24103001,ed_clothing,7,test,16,assets\ed_clothing\jacket_2.png,0,,1432.59,0.0,1.0
24103001,ed_clothing,7,test,17,assets\ed_clothing\vest_1.png,0,,1434.37,0.0,1.0
24103001,ed_clothing,7,test,18,assets\ed_clothing\fur_coat_1.png,0,,1436.18,0.0,1.0
24103001,ed_clothing,7,test,19,assets\ed_clothing\tube_top_3.png,0,,1437.96,0.0,1.0
24103001,ed_clothing,7,test,20,assets\ed_clothing\leggings_1.png,0,,1439.71,0.0,1.0
24103001,ed_clothing,8,test,0,assets\ed_clothing\sock_3.png,0,,1447.7,,
24103001,ed_clothing,8,test,1,assets\ed_clothing\jacket_1.png,0,,1449.86,0.0,1.0
24103001,ed_clothing,8,test,2,assets\ed_clothing\tube_top_1.png,0,,1451.61,0.0,1.0
24103001,ed_clothing,8,test,3,assets\ed_clothing\robe_1.png,0,,1453.62,0.0,1.0
24103001,ed_clothing,8,test,4,assets\ed_clothing\sock_2.png,0,,1455.46,0.0,1.0
24103001,ed_clothing,8,test,5,assets\ed_clothing\swimsuit_1.png,0,,1457.2,0.0,1.0
24103001,ed_clothing,8,test,6,assets\ed_clothing\hoodie_1.png,0,,1458.95,0.0,1.0
24103001,ed_clothing,8,test,7,assets\ed_clothing\toga_3.png,0,,1460.68,0.0,1.0
24103001,ed_clothing,8,test,8,assets\ed_clothing\nightshirt_1.png,0,,1462.42,0.0,1.0
24103001,ed_clothing,8,test,9,assets\ed_clothing\lab_coat_3.png,0,,1464.18,0.0,1.0
24103001,ed_clothing,8,test,10,assets\ed_clothing\fur_coat_2.png,0,,1465.92,0.0,1.0
24103001,ed_clothing,8,test,11,assets\ed_clothing\polo_shirt_3.png,0,,1467.68,0.0,1.0
24103001,ed_clothing,8,test,12,assets\ed_clothing\polo_shirt_3.png,1,0.648,1469.44,1.0,1.0
24103001,ed_clothing,8,test,13,assets\ed_clothing\overalls_3.png,0,,1471.17,0.0,1.0
24103001,ed_clothing,8,test,14,assets\ed_clothing\glove_2.png,0,,1473.15,0.0,1.0
24103001,ed_clothing,8,test,15,assets\ed_clothing\jacket_3.png,0,,1474.89,0.0,1.0
24103001,ed_clothing,8,test,16,assets\ed_clothing\cloak_2.png,0,,1476.62,0.0,1.0
24103001,ed_clothing,8,test,17,assets\ed_clothing\corset_3.png,0,,1478.54,0.0,1.0
24103001,ed_clothing,8,test,18,assets\ed_clothing\nightshirt_3.png,0,,1480.27,0.0,1.0
24103001,ed_clothing,8,test,19,assets\ed_clothing\glove_3.png,0,,1482.25,0.0,1.0
24103001,ed_clothing,8,test,20,assets\ed_clothing\cloak_3.png,0,,1484.1,0.0,1.0
24103001,ed_clothing,9,test,0,assets\ed_clothing\lab_coat_1.png,0,,1491.98,,
24103001,ed_clothing,9,test,1,assets\ed_clothing\hoodie_2.png,0,,1493.73,0.0,1.0
24103001,ed_clothing,9,test,2,assets\ed_clothing\corset_1.png,0,,1495.54,0.0,1.0
24103001,ed_clothing,9,test,3,assets\ed_clothing\corset_1.png,1,0.843,1497.36,1.0,1.0
24103001,ed_clothing,9,test,4,assets\ed_clothing\pajamas_3.png,0,,1499.09,0.0,1.0
24103001,ed_clothing,9,test,5,assets\ed_clothing\corset_2.png,0,,1500.92,0.0,1.0
24103001,ed_clothing,9,test,6,assets\ed_clothing\leggings_2.png,0,,1502.66,0.0,1.0
24103001,ed_clothing,9,test,7,assets\ed_clothing\polo_shirt_2.png,0,,1504.4,0.0,1.0
24103001,ed_clothing,9,test,8,assets\ed_clothing\hoodie_3.png,0,,1506.14,0.0,1.0
24103001,ed_clothing,9,test,9,assets\ed_clothing\glove_1.png,0,,1507.88,0.0,1.0
24103001,ed_clothing,9,test,10,assets\ed_clothing\robe_3.png,0,,1509.96,0.0,1.0
24103001,ed_clothing,9,test,11,assets\ed_clothing\leggings_3.png,0,,1511.71,0.0,1.0
24103001,ed_clothing,9,test,12,assets\ed_clothing\leggings_3.png,1,0.669,1513.46,1.0,1.0
24103001,ed_clothing,9,test,13,assets\ed_clothing\robe_2.png,0,,1515.39,0.0,1.0
24103001,ed_clothing,9,test,14,assets\ed_clothing\tube_top_2.png,0,,1517.13,0.0,1.0
24103001,ed_clothing,9,test,15,assets\ed_clothing\overalls_2.png,0,,1518.86,0.0,1.0
24103001,ed_clothing,9,test,16,assets\ed_clothing\jumpsuit_1.png,0,,1520.59,0.0,1.0
24103001,ed_clothing,9,test,17,assets\ed_clothing\jumpsuit_1.png,1,0.703,1522.33,1.0,1.0
24103001,ed_clothing,9,test,18,assets\ed_clothing\pajamas_2.png,0,,1524.08,0.0,1.0
24103001,ed_clothing,9,test,19,assets\ed_clothing\vest_1.png,0,,1525.85,0.0,1.0
24103001,ed_clothing,9,test,20,assets\ed_clothing\vest_1.png,1,0.537,1527.62,1.0,1.0
24103001,ed_clothing,10,test,0,assets\ed_clothing\sock_3.png,0,,1535.76,,
24103001,ed_clothing,10,test,1,assets\ed_clothing\vest_3.png,0,,1537.5,0.0,1.0
24103001,ed_clothing,10,test,2,assets\ed_clothing\vest_2.png,0,,1539.25,0.0,1.0
24103001,ed_clothing,10,test,3,assets\ed_clothing\fur_coat_1.png,0,,1541.06,0.0,1.0
24103001,ed_clothing,10,test,4,assets\ed_clothing\blazer_2.png,0,,1542.79,0.0,1.0
24103001,ed_clothing,10,test,5,assets\ed_clothing\cloak_1.png,0,,1544.54,0.0,1.0
24103001,ed_clothing,10,test,6,assets\ed_clothing\blazer_1.png,0,,1546.27,0.0,1.0
24103001,ed_clothing,10,test,7,assets\ed_clothing\fur_coat_2.png,0,,1548.01,0.0,1.0
24103001,ed_clothing,10,test,8,assets\ed_clothing\polo_shirt_1.png,0,,1549.75,0.0,1.0
24103001,ed_clothing,10,test,9,assets\ed_clothing\swimsuit_1.png,0,,1551.49,0.0,1.0
24103001,ed_clothing,10,test,10,assets\ed_clothing\toga_2.png,0,,1553.24,0.0,1.0
24103001,ed_clothing,10,test,11,assets\ed_clothing\toga_2.png,1,0.534,1555.0,1.0,1.0
24103001,ed_clothing,10,test,12,assets\ed_clothing\blazer_3.png,0,,1556.75,0.0,1.0
24103001,ed_clothing,10,test,13,assets\ed_clothing\hoodie_1.png,0,,1558.49,0.0,1.0
24103001,ed_clothing,10,test,14,assets\ed_clothing\jumpsuit_2.png,0,,1560.25,0.0,1.0
24103001,ed_clothing,10,test,15,assets\ed_clothing\tube_top_3.png,0,,1562.01,0.0,1.0
24103001,ed_clothing,10,test,16,assets\ed_clothing\jacket_1.png,0,,1564.16,0.0,1.0
24103001,ed_clothing,10,test,17,assets\ed_clothing\leggings_1.png,0,,1565.9,0.0,1.0
24103001,ed_clothing,10,test,18,assets\ed_clothing\tube_top_1.png,0,,1567.64,0.0,1.0
24103001,ed_clothing,10,test,19,assets\ed_clothing\swimsuit_2.png,0,,1569.4,0.0,1.0
24103001,ed_clothing,10,test,20,assets\ed_clothing\corset_1.png,0,,1571.23,0.0,1.0
24103001,ed_instruments,1,test,0,assets\ed_instruments\flute_2.png,0,,1702.13,,
24103001,ed_instruments,1,test,1,assets\ed_instruments\cymbal_2.png,0,,1703.91,0.0,1.0
24103001,ed_instruments,1,test,2,assets\ed_instruments\cello_2.png,0,,1705.67,0.0,1.0
24103001,ed_instruments,1,test,3,assets\ed_instruments\bongo_1.png,0,,1707.41,0.0,1.0
24103001,ed_instruments,1,test,4,assets\ed_instruments\banjo_3.png,0,,1709.23,0.0,1.0
24103001,ed_instruments,1,test,5,assets\ed_instruments\bagpipe_3.png,0,,1711.0,0.0,1.0
24103001,ed_instruments,1,test,6,assets\ed_instruments\saxophone_3.png,0,,1712.79,0.0,1.0
24103001,ed_instruments,1,test,7,assets\ed_instruments\harmonica_2.png,0,,1714.56,0.0,1.0
24103001,ed_instruments,1,test,8,assets\ed_instruments\harmonica_1.png,0,,1716.3,0.0,1.0
24103001,ed_instruments,1,test,9,assets\ed_instruments\kazoo_2.png,0,,1718.05,0.0,1.0
24103001,ed_instruments,1,test,10,assets\ed_instruments\kazoo_2.png,1,0.505,1719.78,1.0,1.0
24103001,ed_instruments,1,test,11,assets\ed_instruments\gong_3.png,0,,1721.53,0.0,1.0
24103001,ed_instruments,1,test,12,assets\ed_instruments\tuba_3.png,0,,1723.29,0.0,1.0
24103001,ed_instruments,1,test,13,assets\ed_instruments\ukulele_1.png,0,,1725.05,0.0,1.0
24103001,ed_instruments,1,test,14,assets\ed_instruments\banjo_2.png,0,,1726.8,0.0,1.0
24103001,ed_instruments,1,test,15,assets\ed_instruments\bell_3.png,0,,1728.57,0.0,1.0
24103001,ed_instruments,1,test,16,assets\ed_instruments\trumpet_1.png,0,,1730.33,0.0,1.0
24103001,ed_instruments,1,test,17,assets\ed_instruments\chime_1.png,0,,1732.11,0.0,1.0
24103001,ed_instruments,1,test,18,assets\ed_instruments\cello_3.png,0,,1733.85,0.0,1.0
24103001,ed_instruments,1,test,19,assets\ed_instruments\cello_3.png,1,0.502,1735.59,1.0,1.0
24103001,ed_instruments,1,test,20,assets\ed_instruments\flute_1.png,0,,1737.32,0.0,1.0
24103001,ed_instruments,2,test,0,assets\ed_instruments\harmonica_3.png,0,,1745.09,,
24103001,ed_instruments,2,test,1,assets\ed_instruments\mandolin_3.png,0,,1746.84,0.0,1.0
24103001,ed_instruments,2,test,2,assets\ed_instruments\mandolin_2.png,0,,1748.61,0.0,1.0
24103001,ed_instruments,2,test,3,assets\ed_instruments\banjo_1.png,0,,1750.36,0.0,1.0
24103001,ed_instruments,2,test,4,assets\ed_instruments\piano_3.png,0,,1752.1,0.0,1.0
24103001,ed_instruments,2,test,5,assets\ed_instruments\trumpet_3.png,0,,1753.84,0.0,1.0
24103001,ed_instruments,2,test,6,assets\ed_instruments\mandolin_1.png,0,,1755.59,0.0,1.0
24103001,ed_instruments,2,test,7,assets\ed_instruments\cymbal_3.png,0,,1757.43,0.0,1.0
24103001,ed_instruments,2,test,8,assets\ed_instruments\ukulele_3.png,0,,1759.24,0.0,1.0
24103001,ed_instruments,2,test,9,assets\ed_instruments\piano_2.png,0,,1760.99,0.0,1.0
24103001,ed_instruments,2,test,10,assets\ed_instruments\trumpet_2.png,0,,1762.77,0.0,1.0
24103001,ed_instruments,2,test,11,assets\ed_instruments\violin_2.png,0,,1764.53,0.0,1.0
24103001,ed_instruments,2,test,12,assets\ed_instruments\piano_1.png,0,,1766.3,0.0,1.0
24103001,ed_instruments,2,test,13,assets\ed_instruments\accoridan_3.png,0,,1768.05,0.0,1.0
24103001,ed_instruments,2,test,14,assets\ed_instruments\tambourine_3.png,0,,1769.89,0.0,1.0
24103001,ed_instruments,2,test,15,assets\ed_instruments\cello_2.png,0,,1771.62,0.0,1.0
24103001,ed_instruments,2,test,16,assets\ed_instruments\violin_1.png,0,,1773.37,0.0,1.0
24103001,ed_instruments,2,test,17,assets\ed_instruments\bongo_2.png,0,,1775.13,0.0,1.0
24103001,ed_instruments,2,test,18,assets\ed_instruments\tuba_1.png,0,,1776.89,0.0,1.0
24103001,ed_instruments,2,test,19,assets\ed_instruments\gong_1.png,0,,1778.89,0.0,1.0
24103001,ed_instruments,2,test,20,assets\ed_instruments\kazoo_1.png,0,,1780.63,0.0,1.0
24103001,ed_instruments,3,test,0,assets\ed_instruments\banjo_3.png,0,,1788.22,,
24103001,ed_instruments,3,test,1,assets\ed_instruments\tambourine_1.png,0,,1789.97,0.0,1.0
24103001,ed_instruments,3,test,2,assets\ed_instruments\cymbal_2.png,0,,1791.77,0.0,1.0
24103001,ed_instruments,3,test,3,assets\ed_instruments\tambourine_2.png,0,,1793.53,0.0,1.0
24103001,ed_instruments,3,test,4,assets\ed_instruments\accordian_1.png,0,,1795.32,0.0,1.0
24103001,ed_instruments,3,test,5,assets\ed_instruments\chime_2.png,0,,1797.08,0.0,1.0
24103001,ed_instruments,3,test,6,assets\ed_instruments\saxophone_2.png,0,,1798.83,0.0,1.0
24103001,ed_instruments,3,test,7,assets\ed_instruments\flute_2.png,0,,1800.56,0.0,1.0
24103001,ed_instruments,3,test,8,assets\ed_instruments\bagpipe_3.png,0,,1802.3,0.0,1.0
24103001,ed_instruments,3,test,9,assets\ed_instruments\bongo_1.png,0,,1804.04,0.0,1.0
24103001,ed_instruments,3,test,10,assets\ed_instruments\bongo_1.png,1,0.836,1805.77,1.0,1.0
24103001,ed_instruments,3,test,11,assets\ed_instruments\bell_3.png,0,,1807.52,0.0,1.0
24103001,ed_instruments,3,test,12,assets\ed_instruments\banjo_2.png,0,,1809.27,0.0,1.0
24103001,ed_instruments,3,test,13,assets\ed_instruments\saxophone_3.png,0,,1811.04,0.0,1.0
24103001,ed_instruments,3,test,14,assets\ed_instruments\mandolin_2.png,0,,1812.8,0.0,1.0
24103001,ed_instruments,3,test,15,assets\ed_instruments\chime_1.png,0,,1814.56,0.0,1.0
24103001,ed_instruments,3,test,16,assets\ed_instruments\tuba_2.png,0,,1816.47,0.0,1.0
24103001,ed_instruments,3,test,17,assets\ed_instruments\harmonica_1.png,0,,1818.2,0.0,1.0
24103001,ed_instruments,3,test,18,assets\ed_instruments\flute_3.png,0,,1819.98,0.0,1.0
24103001,ed_instruments,3,test,19,assets\ed_instruments\violin_3.png,0,,1821.91,0.0,1.0
24103001,ed_instruments,3,test,20,assets\ed_instruments\piano_2.png,0,,1823.65,0.0,1.0
24103001,ed_instruments,4,test,0,assets\ed_instruments\kazoo_2.png,0,,1831.2,,
24103001,ed_instruments,4,test,1,assets\ed_instruments\flute_1.png,0,,1832.93,0.0,1.0
24103001,ed_instruments,4,test,2,assets\ed_instruments\ukulele_3.png,0,,1834.75,0.0,1.0
24103001,ed_instruments,4,test,3,assets\ed_instruments\mandolin_3.png,0,,1836.49,0.0,1.0
24103001,ed_instruments,4,test,4,assets\ed_instruments\trumpet_1.png,0,,1838.23,0.0,1.0
24103001,ed_instruments,4,test,5,assets\ed_instruments\violin_2.png,0,,1839.98,0.0,1.0
24103001,ed_instruments,4,test,6,assets\ed_instruments\harmonica_2.png,0,,1841.74,0.0,1.0
24103001,ed_instruments,4,test,7,assets\ed_instruments\banjo_1.png,0,,1843.47,0.0,1.0
24103001,ed_instruments,4,test,8,assets\ed_instruments\bongo_3.png,0,,1845.23,0.0,1.0
24103001,ed_instruments,4,test,9,assets\ed_instruments\accordian_2.png,0,,1847.01,0.0,1.0
24103001,ed_instruments,4,test,10,assets\ed_instruments\bell_1.png,0,,1848.75,0.0,1.0
24103001,ed_instruments,4,test,11,assets\ed_instruments\bongo_2.png,0,,1850.49,0.0,1.0
24103001,ed_instruments,4,test,12,assets\ed_instruments\bongo_2.png,1,0.499,1852.23,1.0,1.0
24103001,ed_instruments,4,test,13,assets\ed_instruments\saxophone_1.png,0,,1853.98,0.0,1.0
24103001,ed_instruments,4,test,14,assets\ed_instruments\cymbal_1.png,0,,1855.9,0.0,1.0
24103001,ed_instruments,4,test,15,assets\ed_instruments\bagpipe_1.png,0,,1857.64,0.0,1.0
24103001,ed_instruments,4,test,16,assets\ed_instruments\gong_1.png,0,,1859.61,0.0,1.0
24103001,ed_instruments,4,test,17,assets\ed_instruments\ukulele_1.png,0,,1861.34,0.0,1.0
24103001,ed_instruments,4,test,18,assets\ed_instruments\accordian_1.png,0,,1863.11,0.0,1.0
24103001,ed_instruments,4,test,19,assets\ed_instruments\cello_2.png,0,,1864.86,0.0,1.0
24103001,ed_instruments,4,test,20,assets\ed_instruments\mandolin_1.png,0,,1866.61,0.0,1.0
24103001,ed_instruments,5,test,0,assets\ed_instruments\bongo_1.png,0,,1873.95,,
24103001,ed_instruments,5,test,1,assets\ed_instruments\tuba_1.png,0,,1875.68,0.0,1.0
24103001,ed_instruments,5,test,2,assets\ed_instruments\cymbal_2.png,0,,1877.48,0.0,1.0
24103001,ed_instruments,5,test,3,assets\ed_instruments\tambourine_1.png,0,,1879.22,0.0,1.0
24103001,ed_instruments,5,test,4,assets\ed_instruments\bell_2.png,0,,1881.23,0.0,1.0
24103001,ed_instruments,5,test,5,assets\ed_instruments\mandolin_2.png,0,,1882.98,0.0,1.0
24103001,ed_instruments,5,test,6,assets\ed_instruments\tambourine_2.png,0,,1884.74,0.0,1.0
24103001,ed_instruments,5,test,7,assets\ed_instruments\flute_2.png,0,,1886.47,0.0,1.0
24103001,ed_instruments,5,test,8,assets\ed_instruments\trumpet_3.png,0,,1888.2,0.0,1.0
24103001,ed_instruments,5,test,9,assets\ed_instruments\accoridan_3.png,0,,1889.94,0.0,1.0
24103001,ed_instruments,5,test,10,assets\ed_instruments\saxophone_3.png,0,,1891.7,0.0,1.0
24103001,ed_instruments,5,test,11,assets\ed_instruments\cymbal_3.png,0,,1893.54,0.0,1.0
24103001,ed_instruments,5,test,12,assets\ed_instruments\cello_3.png,0,,1895.27,0.0,1.0
24103001,ed_instruments,5,test,13,assets\ed_instruments\piano_2.png,0,,1897.01,0.0,1.0
24103001,ed_instruments,5,test,14,assets\ed_instruments\kazoo_3.png,0,,1898.77,0.0,1.0
24103001,ed_instruments,5,test,15,assets\ed_instruments\tuba_2.png,0,,1900.68,0.0,1.0
24103001,ed_instruments,5,test,16,assets\ed_instruments\tuba_2.png,1,0.681,1902.53,1.0,1.0
24103001,ed_instruments,5,test,17,assets\ed_instruments\saxophone_2.png,0,,1904.27,0.0,1.0
24103001,ed_instruments,5,test,18,assets\ed_instruments\saxophone_2.png,1,0.588,1906.01,1.0,1.0
24103001,ed_instruments,5,test,19,assets\ed_instruments\trumpet_2.png,0,,1907.77,0.0,1.0
24103001,ed_instruments,5,test,20,assets\ed_instruments\mandolin_3.png,0,,1909.51,0.0,1.0
24103001,ed_instruments,6,test,0,assets\ed_instruments\tambourine_3.png,0,,1917.13,,
24103001,ed_instruments,6,test,1,assets\ed_instruments\tambourine_3.png,1,0.548,1918.93,1.0,1.0
24103001,ed_instruments,6,test,2,assets\ed_instruments\tambourine_3.png,1,0.611,1920.73,1.0,1.0
24103001,ed_instruments,6,test,3,assets\ed_instruments\violin_3.png,0,,1922.65,0.0,1.0
24103001,ed_instruments,6,test,4,assets\ed_instruments\chime_3.png,0,,1924.41,0.0,1.0
24103001,ed_instruments,6,test,5,assets\ed_instruments\bongo_2.png,0,,1926.15,0.0,1.0
24103001,ed_instruments,6,test,6,assets\ed_instruments\ukulele_3.png,0,,1927.97,0.0,1.0
24103001,ed_instruments,6,test,7,assets\ed_instruments\flute_3.png,0,,1929.72,0.0,1.0
24103001,ed_instruments,6,test,8,assets\ed_instruments\flute_3.png,1,0.653,1931.47,1.0,1.0
24103001,ed_instruments,6,test,9,assets\ed_instruments\harmonica_2.png,0,,1933.23,0.0,1.0
24103001,ed_instruments,6,test,10,assets\ed_instruments\violin_1.png,0,,1934.96,0.0,1.0
24103001,ed_instruments,6,test,11,assets\ed_instruments\chime_1.png,0,,1936.71,0.0,1.0
24103001,ed_instruments,6,test,12,assets\ed_instruments\bagpipe_3.png,0,,1938.46,0.0,1.0
24103001,ed_instruments,6,test,13,assets\ed_instruments\banjo_1.png,0,,1940.2,0.0,1.0
24103001,ed_instruments,6,test,14,assets\ed_instruments\piano_3.png,0,,1941.93,0.0,1.0
24103001,ed_instruments,6,test,15,assets\ed_instruments\gong_3.png,0,,1943.67,0.0,1.0
24103001,ed_instruments,6,test,16,assets\ed_instruments\kazoo_1.png,0,,1945.4,0.0,1.0
24103001,ed_instruments,6,test,17,assets\ed_instruments\saxophone_1.png,0,,1947.15,0.0,1.0
24103001,ed_instruments,6,test,18,assets\ed_instruments\tuba_3.png,0,,1948.89,0.0,1.0
24103001,ed_instruments,6,test,19,assets\ed_instruments\cello_2.png,0,,1950.63,0.0,1.0
24103001,ed_instruments,6,test,20,assets\ed_instruments\ukulele_2.png,0,,1952.39,0.0,1.0
24103001,ed_instruments,7,test,0,assets\ed_instruments\bell_3.png,0,,1959.84,,
24103001,ed_instruments,7,test,1,assets\ed_instruments\kazoo_2.png,0,,1961.56,0.0,1.0
24103001,ed_instruments,7,test,2,assets\ed_instruments\kazoo_2.png,1,0.448,1963.29,1.0,1.0
24103001,ed_instruments,7,test,3,assets\ed_instruments\kazoo_2.png,1,0.641,1965.02,1.0,1.0
24103001,ed_instruments,7,test,4,assets\ed_instruments\accordian_2.png,0,,1966.79,0.0,1.0
24103001,ed_instruments,7,test,5,assets\ed_instruments\cymbal_1.png,0,,1968.65,0.0,1.0
24103001,ed_instruments,7,test,6,assets\ed_instruments\bell_1.png,0,,1970.39,0.0,1.0
24103001,ed_instruments,7,test,7,assets\ed_instruments\cymbal_3.png,0,,1972.23,0.0,1.0
24103001,ed_instruments,7,test,8,assets\ed_instruments\mandolin_1.png,0,,1973.97,0.0,1.0
24103001,ed_instruments,7,test,9,assets\ed_instruments\bagpipe_1.png,0,,1975.7,0.0,1.0
24103001,ed_instruments,7,test,10,assets\ed_instruments\banjo_2.png,0,,1977.45,0.0,1.0
24103001,ed_instruments,7,test,11,assets\ed_instruments\tuba_1.png,0,,1979.18,0.0,1.0
24103001,ed_instruments,7,test,12,assets\ed_instruments\ukulele_1.png,0,,1980.92,0.0,1.0
24103001,ed_instruments,7,test,13,assets\ed_instruments\gong_1.png,0,,1982.88,0.0,1.0
24103001,ed_instruments,7,test,14,assets\ed_instruments\cello_3.png,0,,1984.61,0.0,1.0
24103001,ed_instruments,7,test,15,assets\ed_instruments\flute_1.png,0,,1986.34,0.0,1.0
24103001,ed_instruments,7,test,16,assets\ed_instruments\flute_1.png,1,0.505,1988.08,1.0,1.0
24103001,ed_instruments,7,test,17,assets\ed_instruments\saxophone_3.png,0,,1989.85,0.0,1.0
24103001,ed_instruments,7,test,18,assets\ed_instruments\accordian_1.png,0,,1991.62,0.0,1.0
24103001,ed_instruments,7,test,19,assets\ed_instruments\violin_2.png,0,,1993.39,0.0,1.0
24103001,ed_instruments,7,test,20,assets\ed_instruments\trumpet_3.png,0,,1995.12,0.0,1.0
24103001,ed_instruments,8,test,0,assets\ed_instruments\banjo_3.png,0,,2003.27,,
24103001,ed_instruments,8,test,1,assets\ed_instruments\tuba_2.png,0,,2005.16,0.0,1.0
24103001,ed_instruments,8,test,2,assets\ed_instruments\flute_3.png,0,,2006.93,0.0,1.0
24103001,ed_instruments,8,test,3,assets\ed_instruments\harmonica_2.png,0,,2008.69,0.0,1.0
24103001,ed_instruments,8,test,4,assets\ed_instruments\ukulele_3.png,0,,2010.51,0.0,1.0
24103001,ed_instruments,8,test,5,assets\ed_instruments\ukulele_3.png,1,0.566,2012.3,1.0,1.0
24103001,ed_instruments,8,test,6,assets\ed_instruments\bongo_3.png,0,,2014.03,0.0,1.0
24103001,ed_instruments,8,test,7,assets\ed_instruments\tambourine_2.png,0,,2015.78,0.0,1.0
24103001,ed_instruments,8,test,8,assets\ed_instruments\chime_2.png,0,,2017.53,0.0,1.0
24103001,ed_instruments,8,test,9,assets\ed_instruments\violin_1.png,0,,2019.26,0.0,1.0
24103001,ed_instruments,8,test,10,assets\ed_instruments\mandolin_3.png,0,,2021.0,0.0,1.0
24103001,ed_instruments,8,test,11,assets\ed_instruments\tuba_3.png,0,,2022.74,0.0,1.0
24103001,ed_instruments,8,test,12,assets\ed_instruments\bell_2.png,0,,2024.74,0.0,1.0
24103001,ed_instruments,8,test,13,assets\ed_instruments\saxophone_1.png,0,,2026.49,0.0,1.0
24103001,ed_instruments,8,test,14,assets\ed_instruments\harmonica_1.png,0,,2028.22,0.0,1.0
24103001,ed_instruments,8,test,15,assets\ed_instruments\cello_2.png,0,,2029.95,0.0,1.0
24103001,ed_instruments,8,test,16,assets\ed_instruments\kazoo_1.png,0,,2031.68,0.0,1.0
24103001,ed_instruments,8,test,17,assets\ed_instruments\bongo_1.png,0,,2033.42,0.0,1.0
24103001,ed_instruments,8,test,18,assets\ed_instruments\cello_1.png,0,,2035.27,0.0,1.0
24103001,ed_instruments,8,test,19,assets\ed_instruments\bongo_2.png,0,,2037.0,0.0,1.0
24103001,ed_instruments,8,test,20,assets\ed_instruments\ukulele_2.png,0,,2038.74,0.0,1.0
24103001,ed_instruments,9,test,0,assets\ed_instruments\bell_3.png,0,,2046.96,,
24103001,ed_instruments,9,test,1,assets\ed_instruments\chime_1.png,0,,2048.71,0.0,1.0
24103001,ed_instruments,9,test,2,assets\ed_instruments\bell_1.png,0,,2050.45,0.0,1.0
24103001,ed_instruments,9,test,3,assets\ed_instruments\trumpet_2.png,0,,2052.19,0.0,1.0
24103001,ed_instruments,9,test,4,assets\ed_instruments\gong_3.png,0,,2053.93,0.0,1.0
24103001,ed_instruments,9,test,5,assets\ed_instruments\accordian_2.png,0,,2055.69,0.0,1.0
24103001,ed_instruments,9,test,6,assets\ed_instruments\trumpet_1.png,0,,2057.43,0.0,1.0
24103001,ed_instruments,9,test,7,assets\ed_instruments\tambourine_3.png,0,,2059.24,0.0,1.0
24103001,ed_instruments,9,test,8,assets\ed_instruments\mandolin_2.png,0,,2061.0,0.0,1.0
24103001,ed_instruments,9,test,9,assets\ed_instruments\mandolin_2.png,1,0.806,2062.74,1.0,1.0
24103001,ed_instruments,9,test,10,assets\ed_instruments\cello_3.png,0,,2064.48,0.0,1.0
24103001,ed_instruments,9,test,11,assets\ed_instruments\cello_3.png,1,0.682,2066.22,1.0,1.0
24103001,ed_instruments,9,test,12,assets\ed_instruments\harmonica_3.png,0,,2067.95,0.0,1.0
24103001,ed_instruments,9,test,13,assets\ed_instruments\banjo_3.png,0,,2069.76,0.0,1.0
24103001,ed_instruments,9,test,14,assets\ed_instruments\accoridan_3.png,0,,2071.5,0.0,1.0
24103001,ed_instruments,9,test,15,assets\ed_instruments\piano_3.png,0,,2073.24,0.0,1.0
24103001,ed_instruments,9,test,16,assets\ed_instruments\gong_2.png,0,,2075.0,0.0,1.0
24103001,ed_instruments,9,test,17,assets\ed_instruments\mandolin_1.png,0,,2076.74,0.0,1.0
24103001,ed_instruments,9,test,18,assets\ed_instruments\bagpipe_3.png,0,,2078.49,0.0,1.0
24103001,ed_instruments,9,test,19,assets\ed_instruments\violin_3.png,0,,2080.4,0.0,1.0
24103001,ed_instruments,9,test,20,assets\ed_instruments\ukulele_3.png,0,,2082.2,0.0,1.0
24103001,ed_instruments,10,test,0,assets\ed_instruments\trumpet_3.png,0,,2090.09,,
24103001,ed_instruments,10,test,1,assets\ed_instruments\chime_2.png,0,,2091.84,0.0,1.0
24103001,ed_instruments,10,test,2,assets\ed_instruments\violin_1.png,0,,2093.57,0.0,1.0
24103001,ed_instruments,10,test,3,assets\ed_instruments\violin_1.png,1,0.575,2095.3,1.0,1.0
24103001,ed_instruments,10,test,4,assets\ed_instruments\bagpipe_2.png,0,,2097.11,0.0,1.0
24103001,ed_instruments,10,test,5,assets\ed_instruments\ukulele_1.png,0,,2098.84,0.0,1.0
24103001,ed_instruments,10,test,6,assets\ed_instruments\chime_3.png,0,,2100.59,0.0,1.0
24103001,ed_instruments,10,test,7,assets\ed_instruments\banjo_2.png,0,,2102.33,0.0,1.0
24103001,ed_instruments,10,test,8,assets\ed_instruments\tuba_1.png,0,,2104.06,0.0,1.0
24103001,ed_instruments,10,test,9,assets\ed_instruments\bagpipe_1.png,0,,2105.8,0.0,1.0
24103001,ed_instruments,10,test,10,assets\ed_instruments\cello_2.png,0,,2107.54,0.0,1.0
24103001,ed_instruments,10,test,11,assets\ed_instruments\bell_2.png,0,,2109.52,0.0,1.0
24103001,ed_instruments,10,test,12,assets\ed_instruments\violin_2.png,0,,2111.27,0.0,1.0
24103001,ed_instruments,10,test,13,assets\ed_instruments\piano_2.png,0,,2113.01,0.0,1.0
24103001,ed_instruments,10,test,14,assets\ed_instruments\cello_1.png,0,,2114.82,0.0,1.0
24103001,ed_instruments,10,test,15,assets\ed_instruments\bell_3.png,0,,2116.58,0.0,1.0
24103001,ed_instruments,10,test,16,assets\ed_instruments\harmonica_1.png,0,,2118.31,0.0,1.0
24103001,ed_instruments,10,test,17,assets\ed_instruments\bongo_3.png,0,,2120.05,0.0,1.0
24103001,ed_instruments,10,test,18,assets\ed_instruments\bongo_3.png,1,0.62,2121.78,1.0,1.0
24103001,ed_instruments,10,test,19,assets\ed_instruments\chime_1.png,0,,2123.53,0.0,1.0
24103001,ed_instruments,10,test,20,assets\ed_instruments\piano_1.png,0,,2125.29,0.0,1.0
24103001,ed_birds,1,test,0,assets\ed_birds\duckling_2.png,0,,2242.54,,
24103001,ed_birds,1,test,1,assets\ed_birds\vulture_1.png,0,,2244.28,0.0,1.0
24103001,ed_birds,1,test,2,assets\ed_birds\toucan_2.png,0,,2246.03,0.0,1.0
24103001,ed_birds,1,test,3,assets\ed_birds\cardinal_3.png,0,,2247.78,0.0,1.0
24103001,ed_birds,1,test,4,assets\ed_birds\penguin_2.png,0,,2249.52,0.0,1.0
24103001,ed_birds,1,test,5,assets\ed_birds\penguin_2.png,1,0.563,2251.24,1.0,1.0
24103001,ed_birds,1,test,6,assets\ed_birds\duckling_1.png,0,,2252.99,0.0,1.0
24103001,ed_birds,1,test,7,assets\ed_birds\vulture_3.png,0,,2254.73,0.0,1.0
24103001,ed_birds,1,test,8,assets\ed_birds\penguin_1.png,0,,2256.47,0.0,1.0
24103001,ed_birds,1,test,9,assets\ed_birds\goose_1.png,0,,2258.22,0.0,1.0
24103001,ed_birds,1,test,10,assets\ed_birds\goose_1.png,1,0.578,2259.95,1.0,1.0
24103001,ed_birds,1,test,11,assets\ed_birds\swan_3.png,0,,2261.7,0.0,1.0
24103001,ed_birds,1,test,12,assets\ed_birds\pelican_2.png,0,,2263.45,0.0,1.0
24103001,ed_birds,1,test,13,assets\ed_birds\crow_3.png,0,,2265.19,0.0,1.0
24103001,ed_birds,1,test,14,assets\ed_birds\crow_3.png,1,0.589,2266.92,1.0,1.0
24103001,ed_birds,1,test,15,assets\ed_birds\peacock_1.png,0,,2268.67,0.0,1.0
24103001,ed_birds,1,test,16,assets\ed_birds\flamingo_3.png,0,,2270.41,0.0,1.0
24103001,ed_birds,1,test,17,assets\ed_birds\ostrich_1.png,0,,2272.16,0.0,1.0
24103001,ed_birds,1,test,18,assets\ed_birds\hummingbird_2.png,0,,2273.9,0.0,1.0
24103001,ed_birds,1,test,19,assets\ed_birds\crow_1.png,0,,2275.64,0.0,1.0
24103001,ed_birds,1,test,20,assets\ed_birds\pheasant_1.png,0,,2277.39,0.0,1.0
24103001,ed_birds,2,test,0,assets\ed_birds\pigeon_2.png,0,,2285.1,,
24103001,ed_birds,2,test,1,assets\ed_birds\seagull_2.png,0,,2286.84,0.0,1.0
24103001,ed_birds,2,test,2,assets\ed_birds\toucan_3.png,0,,2288.59,0.0,1.0
24103001,ed_birds,2,test,3,assets\ed_birds\eagle_3.png,0,,2290.33,0.0,1.0
24103001,ed_birds,2,test,4,assets\ed_birds\rooster_2.png,0,,2292.09,0.0,1.0
24103001,ed_birds,2,test,5,assets\ed_birds\pelican_3.png,0,,2293.84,0.0,1.0
24103001,ed_birds,2,test,6,assets\ed_birds\goose_2.png,0,,2295.58,0.0,1.0
24103001,ed_birds,2,test,7,assets\ed_birds\toucan_1.png,0,,2297.32,0.0,1.0
24103001,ed_birds,2,test,8,assets\ed_birds\pigeon_3.png,0,,2299.07,0.0,1.0
24103001,ed_birds,2,test,9,assets\ed_birds\pigeon_1.png,0,,2300.82,0.0,1.0
24103001,ed_birds,2,test,10,assets\ed_birds\cardinal_2.png,0,,2302.56,0.0,1.0
24103001,ed_birds,2,test,11,assets\ed_birds\cardinal_1.png,0,,2304.3,0.0,1.0
24103001,ed_birds,2,test,12,assets\ed_birds\pheasant_2.png,0,,2306.06,0.0,1.0
24103001,ed_birds,2,test,13,assets\ed_birds\peacock_3.png,0,,2307.82,0.0,1.0
24103001,ed_birds,2,test,14,assets\ed_birds\ostrich_2.png,0,,2309.56,0.0,1.0
24103001,ed_birds,2,test,15,assets\ed_birds\ostrich_2.png,1,0.553,2311.29,1.0,1.0
24103001,ed_birds,2,test,16,assets\ed_birds\peacock_2.png,0,,2313.04,0.0,1.0
24103001,ed_birds,2,test,17,assets\ed_birds\duckling_2.png,0,,2314.77,0.0,1.0
24103001,ed_birds,2,test,18,assets\ed_birds\flamingo_2.png,0,,2316.51,0.0,1.0
24103001,ed_birds,2,test,19,assets\ed_birds\goose_3.png,0,,2318.25,0.0,1.0
24103001,ed_birds,2,test,20,assets\ed_birds\penguin_3.png,0,,2320.0,0.0,1.0
24103001,ed_birds,3,test,0,assets\ed_birds\toucan_2.png,0,,2327.64,,
24103001,ed_birds,3,test,1,assets\ed_birds\hummingbird_3.png,0,,2329.38,0.0,1.0
24103001,ed_birds,3,test,2,assets\ed_birds\hummingbird_1.png,0,,2331.13,0.0,1.0
24103001,ed_birds,3,test,3,assets\ed_birds\puffin_1.png,0,,2332.87,0.0,1.0
24103001,ed_birds,3,test,4,assets\ed_birds\puffin_1.png,1,0.615,2334.61,1.0,1.0
24103001,ed_birds,3,test,5,assets\ed_birds\crow_3.png,0,,2336.34,0.0,1.0
24103001,ed_birds,3,test,6,assets\ed_birds\swan_1.png,0,,2338.08,0.0,1.0
24103001,ed_birds,3,test,7,assets\ed_birds\seagull_1.png,0,,2339.83,0.0,1.0
24103001,ed_birds,3,test,8,assets\ed_birds\peacock_1.png,0,,2341.57,0.0,1.0
24103001,ed_birds,3,test,9,assets\ed_birds\turkey_1.png,0,,2343.46,0.0,1.0
24103001,ed_birds,3,test,10,assets\ed_birds\rooster_3.png,0,,2345.2,0.0,1.0
24103001,ed_birds,3,test,11,assets\ed_birds\pheasant_1.png,0,,2346.93,0.0,1.0
24103001,ed_birds,3,test,12,assets\ed_birds\hummingbird_2.png,0,,2348.67,0.0,1.0
24103001,ed_birds,3,test,13,assets\ed_birds\duckling_3.png,0,,2350.41,0.0,1.0
24103001,ed_birds,3,test,14,assets\ed_birds\duckling_1.png,0,,2352.14,0.0,1.0
24103001,ed_birds,3,test,15,assets\ed_birds\penguin_2.png,0,,2353.86,0.0,1.0
24103001,ed_birds,3,test,16,assets\ed_birds\puffin_2.png,0,,2355.61,0.0,1.0
24103001,ed_birds,3,test,17,assets\ed_birds\eagle_1.png,0,,2357.35,0.0,1.0
24103001,ed_birds,3,test,18,assets\ed_birds\turkey_3.png,0,,2359.1,0.0,1.0
24103001,ed_birds,3,test,19,assets\ed_birds\vulture_1.png,0,,2360.83,0.0,1.0
24103001,ed_birds,3,test,20,assets\ed_birds\pheasant_3.png,0,,2362.58,0.0,1.0
24103001,ed_birds,4,test,0,assets\ed_birds\swan_2.png,0,,2370.41,,
24103001,ed_birds,4,test,1,assets\ed_birds\goose_2.png,0,,2372.15,0.0,1.0
24103001,ed_birds,4,test,2,assets\ed_birds\cardinal_3.png,0,,2373.89,0.0,1.0
24103001,ed_birds,4,test,3,assets\ed_birds\cardinal_3.png,1,0.57,2375.62,1.0,1.0
24103001,ed_birds,4,test,4,assets\ed_birds\cardinal_3.png,1,0.717,2377.35,1.0,1.0
24103001,ed_birds,4,test,5,assets\ed_birds\seagull_2.png,0,,2379.08,0.0,1.0
24103001,ed_birds,4,test,6,assets\ed_birds\seagull_2.png,1,0.629,2380.82,1.0,1.0
24103001,ed_birds,4,test,7,assets\ed_birds\ostrich_3.png,0,,2382.56,0.0,1.0
24103001,ed_birds,4,test,8,assets\ed_birds\ostrich_3.png,1,0.559,2384.29,1.0,1.0
24103001,ed_birds,4,test,9,assets\ed_birds\cardinal_1.png,0,,2386.02,0.0,1.0
24103001,ed_birds,4,test,10,assets\ed_birds\pigeon_1.png,0,,2387.75,0.0,1.0
24103001,ed_birds,4,test,11,assets\ed_birds\pigeon_1.png,1,0.617,2389.48,1.0,1.0
24103001,ed_birds,4,test,12,assets\ed_birds\pelican_3.png,0,,2391.22,0.0,1.0
24103001,ed_birds,4,test,13,assets\ed_birds\rooster_1.png,0,,2392.97,0.0,1.0
24103001,ed_birds,4,test,14,assets\ed_birds\swan_3.png,0,,2394.7,0.0,1.0
24103001,ed_birds,4,test,15,assets\ed_birds\eagle_2.png,0,,2396.44,0.0,1.0
24103001,ed_birds,4,test,16,assets\ed_birds\pigeon_3.png,0,,2398.18,0.0,1.0
24103001,ed_birds,4,test,17,assets\ed_birds\pigeon_3.png,1,0.642,2399.92,1.0,1.0
24103001,ed_birds,4,test,18,assets\ed_birds\pigeon_2.png,0,,2401.66,0.0,1.0
24103001,ed_birds,4,test,19,assets\ed_birds\vulture_2.png,0,,2403.4,0.0,1.0
24103001,ed_birds,4,test,20,assets\ed_birds\vulture_2.png,1,0.67,2405.14,1.0,1.0
24103001,ed_birds,5,test,0,assets\ed_birds\pelican_2.png,0,,2412.73,,
24103001,ed_birds,5,test,1,assets\ed_birds\pheasant_2.png,0,,2414.46,0.0,1.0
24103001,ed_birds,5,test,2,assets\ed_birds\puffin_3.png,0,,2416.21,0.0,1.0
24103001,ed_birds,5,test,3,assets\ed_birds\crow_2.png,0,,2417.96,0.0,1.0
24103001,ed_birds,5,test,4,assets\ed_birds\swan_1.png,0,,2419.69,0.0,1.0
24103001,ed_birds,5,test,5,assets\ed_birds\swan_1.png,1,0.524,2421.43,1.0,1.0
24103001,ed_birds,5,test,6,assets\ed_birds\penguin_3.png,0,,2423.16,0.0,1.0
24103001,ed_birds,5,test,7,assets\ed_birds\crow_3.png,0,,2424.89,0.0,1.0
24103001,ed_birds,5,test,8,assets\ed_birds\flamingo_2.png,0,,2426.62,0.0,1.0
24103001,ed_birds,5,test,9,assets\ed_birds\penguin_1.png,0,,2428.35,0.0,1.0
24103001,ed_birds,5,test,10,assets\ed_birds\rooster_3.png,0,,2430.08,0.0,1.0
24103001,ed_birds,5,test,11,assets\ed_birds\hummingbird_3.png,0,,2431.81,0.0,1.0
24103001,ed_birds,5,test,12,assets\ed_birds\hummingbird_3.png,1,0.642,2433.55,1.0,1.0
24103001,ed_birds,5,test,13,assets\ed_birds\duckling_2.png,0,,2435.28,0.0,1.0
24103001,ed_birds,5,test,14,assets\ed_birds\flamingo_3.png,0,,2437.01,0.0,1.0
24103001,ed_birds,5,test,15,assets\ed_birds\peacock_2.png,0,,2438.74,0.0,1.0
24103001,ed_birds,5,test,16,assets\ed_birds\cardinal_2.png,0,,2440.49,0.0,1.0
24103001,ed_birds,5,test,17,assets\ed_birds\puffin_2.png,0,,2442.22,0.0,1.0
24103001,ed_birds,5,test,18,assets\ed_birds\pheasant_1.png,0,,2443.96,0.0,1.0
24103001,ed_birds,5,test,19,assets\ed_birds\turkey_3.png,0,,2445.69,0.0,1.0
24103001,ed_birds,5,test,20,assets\ed_birds\rooster_2.png,0,,2447.43,0.0,1.0
24103001,ed_birds,6,test,0,assets\ed_birds\peacock_3.png,0,,2455.55,,
24103001,ed_birds,6,test,1,assets\ed_birds\ostrich_2.png,0,,2457.28,0.0,1.0
24103001,ed_birds,6,test,2,assets\ed_birds\eagle_3.png,0,,2459.01,0.0,1.0
24103001,ed_birds,6,test,3,assets\ed_birds\seagull_2.png,0,,2460.75,0.0,1.0
24103001,ed_birds,6,test,4,assets\ed_birds\hummingbird_1.png,0,,2462.48,0.0,1.0
24103001,ed_birds,6,test,5,assets\ed_birds\crow_1.png,0,,2464.22,0.0,1.0
24103001,ed_birds,6,test,6,assets\ed_birds\swan_2.png,0,,2465.96,0.0,1.0
24103001,ed_birds,6,test,7,assets\ed_birds\pigeon_1.png,0,,2467.7,0.0,1.0
24103001,ed_birds,6,test,8,assets\ed_birds\pigeon_1.png,1,0.768,2469.44,1.0,1.0
24103001,ed_birds,6,test,9,assets\ed_birds\toucan_2.png,0,,2471.18,0.0,1.0
24103001,ed_birds,6,test,10,assets\ed_birds\hummingbird_2.png,0,,2472.92,0.0,1.0
24103001,ed_birds,6,test,11,assets\ed_birds\puffin_1.png,0,,2474.66,0.0,1.0
24103001,ed_birds,6,test,12,assets\ed_birds\goose_1.png,0,,2476.41,0.0,1.0
24103001,ed_birds,6,test,13,assets\ed_birds\rooster_1.png,0,,2478.15,0.0,1.0
24103001,ed_birds,6,test,14,assets\ed_birds\pheasant_2.png,0,,2479.89,0.0,1.0
24103001,ed_birds,6,test,15,assets\ed_birds\pheasant_3.png,0,,2481.63,0.0,1.0
24103001,ed_birds,6,test,16,assets\ed_birds\cardinal_3.png,0,,2483.37,0.0,1.0
24103001,ed_birds,6,test,17,assets\ed_birds\swan_3.png,0,,2485.12,0.0,1.0
24103001,ed_birds,6,test,18,assets\ed_birds\vulture_3.png,0,,2486.86,0.0,1.0
24103001,ed_birds,6,test,19,assets\ed_birds\goose_3.png,0,,2488.6,0.0,1.0
24103001,ed_birds,6,test,20,assets\ed_birds\pelican_2.png,0,,2490.34,0.0,1.0
24103001,ed_birds,7,test,0,assets\ed_birds\puffin_3.png,0,,2499.47,,
24103001,ed_birds,7,test,1,assets\ed_birds\seagull_3.png,0,,2501.23,0.0,1.0
24103001,ed_birds,7,test,2,assets\ed_birds\flamingo_1.png,0,,2502.98,0.0,1.0
24103001,ed_birds,7,test,3,assets\ed_birds\toucan_3.png,0,,2504.71,0.0,1.0
24103001,ed_birds,7,test,4,assets\ed_birds\crow_3.png,0,,2506.45,0.0,1.0
24103001,ed_birds,7,test,5,assets\ed_birds\penguin_2.png,0,,2508.19,0.0,1.0
24103001,ed_birds,7,test,6,assets\ed_birds\penguin_2.png,1,0.578,2509.92,1.0,1.0
24103001,ed_birds,7,test,7,assets\ed_birds\penguin_1.png,0,,2511.65,0.0,1.0
24103001,ed_birds,7,test,8,assets\ed_birds\flamingo_2.png,0,,2513.38,0.0,1.0
24103001,ed_birds,7,test,9,assets\ed_birds\ostrich_3.png,0,,2515.12,0.0,1.0
24103001,ed_birds,7,test,10,assets\ed_birds\eagle_2.png,0,,2516.86,0.0,1.0
24103001,ed_birds,7,test,11,assets\ed_birds\pelican_3.png,0,,2518.61,0.0,1.0
24103001,ed_birds,7,test,12,assets\ed_birds\swan_1.png,0,,2520.35,0.0,1.0
24103001,ed_birds,7,test,13,assets\ed_birds\crow_2.png,0,,2522.1,0.0,1.0
24103001,ed_birds,7,test,14,assets\ed_birds\crow_2.png,1,0.577,2523.83,1.0,1.0
24103001,ed_birds,7,test,15,assets\ed_birds\pelican_1.png,0,,2525.58,0.0,1.0
24103001,ed_birds,7,test,16,assets\ed_birds\pigeon_2.png,0,,2527.32,0.0,1.0
24103001,ed_birds,7,test,17,assets\ed_birds\hummingbird_1.png,0,,2529.07,0.0,1.0
24103001,ed_birds,7,test,18,assets\ed_birds\duckling_3.png,0,,2530.8,0.0,1.0
24103001,ed_birds,7,test,19,assets\ed_birds\seagull_1.png,0,,2532.54,0.0,1.0
24103001,ed_birds,7,test,20,assets\ed_birds\flamingo_3.png,0,,2534.28,0.0,1.0
24103001,ed_birds,8,test,0,assets\ed_birds\vulture_1.png,0,,2541.64,,
24103001,ed_birds,8,test,1,assets\ed_birds\goose_2.png,0,,2543.39,0.0,1.0
24103001,ed_birds,8,test,2,assets\ed_birds\turkey_3.png,0,,2545.15,0.0,1.0
24103001,ed_birds,8,test,3,assets\ed_birds\ostrich_1.png,0,,2546.89,0.0,1.0
24103001,ed_birds,8,test,4,assets\ed_birds\vulture_2.png,0,,2548.63,0.0,1.0
24103001,ed_birds,8,test,5,assets\ed_birds\penguin_3.png,0,,2550.36,0.0,1.0
24103001,ed_birds,8,test,6,assets\ed_birds\puffin_1.png,0,,2552.1,0.0,1.0
24103001,ed_birds,8,test,7,assets\ed_birds\cardinal_2.png,0,,2553.84,0.0,1.0
24103001,ed_birds,8,test,8,assets\ed_birds\pheasant_1.png,0,,2555.59,0.0,1.0
24103001,ed_birds,8,test,9,assets\ed_birds\swan_2.png,0,,2557.33,0.0,1.0
24103001,ed_birds,8,test,10,assets\ed_birds\hummingbird_2.png,0,,2559.06,0.0,1.0
24103001,ed_birds,8,test,11,assets\ed_birds\hummingbird_2.png,1,0.724,2560.79,1.0,1.0
24103001,ed_birds,8,test,12,assets\ed_birds\pigeon_3.png,0,,2562.54,0.0,1.0
24103001,ed_birds,8,test,13,assets\ed_birds\puffin_2.png,0,,2564.29,0.0,1.0
24103001,ed_birds,8,test,14,assets\ed_birds\seagull_3.png,0,,2566.02,0.0,1.0
24103001,ed_birds,8,test,15,assets\ed_birds\puffin_3.png,1,0.772,2567.75,0.0,0.0
24103001,ed_birds,8,test,16,assets\ed_birds\puffin_3.png,1,0.645,2569.49,1.0,1.0
24103001,ed_birds,8,test,17,assets\ed_birds\toucan_3.png,0,,2571.22,0.0,1.0
24103001,ed_birds,8,test,18,assets\ed_birds\eagle_1.png,0,,2572.96,0.0,1.0
24103001,ed_birds,8,test,19,assets\ed_birds\toucan_2.png,0,,2574.7,0.0,1.0
24103001,ed_birds,8,test,20,assets\ed_birds\cardinal_3.png,0,,2576.43,0.0,1.0
24103001,ed_birds,9,test,0,assets\ed_birds\duckling_1.png,0,,2584.1,,
24103001,ed_birds,9,test,1,assets\ed_birds\turkey_2.png,0,,2585.85,0.0,1.0
24103001,ed_birds,9,test,2,assets\ed_birds\swan_3.png,0,,2587.59,0.0,1.0
24103001,ed_birds,9,test,3,assets\ed_birds\swan_3.png,1,0.644,2589.32,1.0,1.0
24103001,ed_birds,9,test,4,assets\ed_birds\eagle_2.png,0,,2591.06,0.0,1.0
24103001,ed_birds,9,test,5,assets\ed_birds\crow_1.png,0,,2592.79,0.0,1.0
24103001,ed_birds,9,test,6,assets\ed_birds\peacock_3.png,0,,2594.53,0.0,1.0
24103001,ed_birds,9,test,7,assets\ed_birds\peacock_3.png,1,0.675,2596.27,1.0,1.0
24103001,ed_birds,9,test,8,assets\ed_birds\penguin_2.png,0,,2598.0,0.0,1.0
24103001,ed_birds,9,test,9,assets\ed_birds\pheasant_3.png,0,,2599.73,0.0,1.0
24103001,ed_birds,9,test,10,assets\ed_birds\peacock_2.png,0,,2601.48,0.0,1.0
24103001,ed_birds,9,test,11,assets\ed_birds\cardinal_1.png,0,,2603.22,0.0,1.0
24103001,ed_birds,9,test,12,assets\ed_birds\pelican_3.png,0,,2604.96,0.0,1.0
24103001,ed_birds,9,test,13,assets\ed_birds\rooster_1.png,0,,2606.7,0.0,1.0
24103001,ed_birds,9,test,14,assets\ed_birds\eagle_3.png,0,,2608.44,0.0,1.0
24103001,ed_birds,9,test,15,assets\ed_birds\rooster_2.png,0,,2610.18,0.0,1.0
24103001,ed_birds,9,test,16,assets\ed_birds\turkey_1.png,0,,2612.05,0.0,1.0
24103001,ed_birds,9,test,17,assets\ed_birds\ostrich_3.png,0,,2613.79,0.0,1.0
24103001,ed_birds,9,test,18,assets\ed_birds\goose_3.png,0,,2615.52,0.0,1.0
24103001,ed_birds,9,test,19,assets\ed_birds\goose_1.png,0,,2617.26,0.0,1.0
24103001,ed_birds,9,test,20,assets\ed_birds\flamingo_1.png,0,,2618.99,0.0,1.0
24103001,ed_birds,10,test,0,assets\ed_birds\pelican_2.png,0,,2626.87,,
24103001,ed_birds,10,test,1,assets\ed_birds\pelican_2.png,1,0.57,2628.6,1.0,1.0
24103001,ed_birds,10,test,2,assets\ed_birds\peacock_1.png,0,,2630.35,0.0,1.0
24103001,ed_birds,10,test,3,assets\ed_birds\ostrich_2.png,0,,2632.09,0.0,1.0
24103001,ed_birds,10,test,4,assets\ed_birds\seagull_1.png,0,,2633.82,0.0,1.0
24103001,ed_birds,10,test,5,assets\ed_birds\flamingo_3.png,0,,2635.56,0.0,1.0
24103001,ed_birds,10,test,6,assets\ed_birds\duckling_2.png,0,,2637.3,0.0,1.0
24103001,ed_birds,10,test,7,assets\ed_birds\pigeon_3.png,0,,2639.04,0.0,1.0
24103001,ed_birds,10,test,8,assets\ed_birds\vulture_1.png,0,,2640.77,0.0,1.0
24103001,ed_birds,10,test,9,assets\ed_birds\swan_2.png,0,,2642.51,0.0,1.0
24103001,ed_birds,10,test,10,assets\ed_birds\crow_3.png,0,,2644.25,0.0,1.0
24103001,ed_birds,10,test,11,assets\ed_birds\pheasant_1.png,0,,2645.98,0.0,1.0
24103001,ed_birds,10,test,12,assets\ed_birds\pigeon_2.png,0,,2647.72,0.0,1.0
24103001,ed_birds,10,test,13,assets\ed_birds\duckling_3.png,0,,2649.46,0.0,1.0
24103001,ed_birds,10,test,14,assets\ed_birds\hummingbird_3.png,0,,2651.2,0.0,1.0
24103001,ed_birds,10,test,15,assets\ed_birds\eagle_1.png,0,,2652.94,0.0,1.0
24103001,ed_birds,10,test,16,assets\ed_birds\eagle_1.png,1,0.859,2654.67,1.0,1.0
24103001,ed_birds,10,test,17,assets\ed_birds\toucan_2.png,0,,2656.4,0.0,1.0
24103001,ed_birds,10,test,18,assets\ed_birds\penguin_3.png,0,,2658.13,0.0,1.0
24103001,ed_birds,10,test,19,assets\ed_birds\puffin_1.png,0,,2659.87,0.0,1.0
24103001,ed_birds,10,test,20,assets\ed_birds\toucan_1.png,0,,2661.61,0.0,1.0
24103001,ed_vegetables,1,test,0,assets\ed_vegetables\corn_3.png,0,,2685.12,,
24103001,ed_vegetables,1,test,1,assets\ed_vegetables\green_beans_1.png,0,,2686.88,0.0,1.0
24103001,ed_vegetables,1,test,2,assets\ed_vegetables\green_beans_1.png,1,0.637,2688.63,1.0,1.0
24103001,ed_vegetables,1,test,3,assets\ed_vegetables\sprouts_3.png,0,,2690.38,0.0,1.0
24103001,ed_vegetables,1,test,4,assets\ed_vegetables\green_beans_3.png,0,,2692.15,0.0,1.0
24103001,ed_vegetables,1,test,5,assets\ed_vegetables\rhubarb_2.png,0,,2693.91,0.0,1.0
24103001,ed_vegetables,1,test,6,assets\ed_vegetables\rhubarb_3.png,0,,2695.77,0.0,1.0
24103001,ed_vegetables,1,test,7,assets\ed_vegetables\okra_2.png,0,,2697.63,0.0,1.0
24103001,ed_vegetables,1,test,8,assets\ed_vegetables\brussels_sprouts_2.png,0,,2699.39,0.0,1.0
24103001,ed_vegetables,1,test,9,assets\ed_vegetables\brussels_sprouts_2.png,1,0.517,2701.13,1.0,1.0
24103001,ed_vegetables,1,test,10,assets\ed_vegetables\scallion_1.png,0,,2702.88,0.0,1.0
24103001,ed_vegetables,1,test,11,assets\ed_vegetables\chive_1.png,0,,2704.63,0.0,1.0
24103001,ed_vegetables,1,test,12,assets\ed_vegetables\okra_3.png,0,,2706.46,0.0,1.0
24103001,ed_vegetables,1,test,13,assets\ed_vegetables\okra_3.png,1,0.728,2708.26,1.0,1.0
24103001,ed_vegetables,1,test,14,assets\ed_vegetables\scallion_2.png,0,,2710.01,0.0,1.0
24103001,ed_vegetables,1,test,15,assets\ed_vegetables\cauliflower_2.png,0,,2711.76,0.0,1.0
24103001,ed_vegetables,1,test,16,assets\ed_vegetables\okra_1.png,0,,2713.65,0.0,1.0
24103001,ed_vegetables,1,test,17,assets\ed_vegetables\onion_1.png,0,,2715.4,0.0,1.0
24103001,ed_vegetables,1,test,18,assets\ed_vegetables\bok_choy_1.png,0,,2717.16,0.0,1.0
24103001,ed_vegetables,1,test,19,assets\ed_vegetables\rhubarb_1.png,0,,2718.92,0.0,1.0
24103001,ed_vegetables,1,test,20,assets\ed_vegetables\brussels_sprouts_3.png,0,,2720.68,0.0,1.0
24103001,ed_vegetables,2,test,0,assets\ed_vegetables\radish_1.png,0,,2728.34,,
24103001,ed_vegetables,2,test,1,assets\ed_vegetables\green_beans_2.png,0,,2730.1,0.0,1.0
24103001,ed_vegetables,2,test,2,assets\ed_vegetables\artichoke_2.png,0,,2731.85,0.0,1.0
24103001,ed_vegetables,2,test,3,assets\ed_vegetables\arugula_1.png,0,,2733.61,0.0,1.0
24103001,ed_vegetables,2,test,4,assets\ed_vegetables\corn_1.png,0,,2735.35,0.0,1.0
24103001,ed_vegetables,2,test,5,assets\ed_vegetables\radish_3.png,0,,2737.11,0.0,1.0
24103001,ed_vegetables,2,test,6,assets\ed_vegetables\scallion_3.png,0,,2738.87,0.0,1.0
24103001,ed_vegetables,2,test,7,assets\ed_vegetables\scallion_3.png,1,0.717,2740.61,1.0,1.0
24103001,ed_vegetables,2,test,8,assets\ed_vegetables\jalapeno_1.png,0,,2742.36,0.0,1.0
24103001,ed_vegetables,2,test,9,assets\ed_vegetables\artichoke_1.png,0,,2744.14,0.0,1.0
24103001,ed_vegetables,2,test,10,assets\ed_vegetables\beet_3.png,0,,2745.89,0.0,1.0
24103001,ed_vegetables,2,test,11,assets\ed_vegetables\gourd_1.png,0,,2747.9,0.0,1.0
24103001,ed_vegetables,2,test,12,assets\ed_vegetables\leek_3.png,0,,2749.65,0.0,1.0
24103001,ed_vegetables,2,test,13,assets\ed_vegetables\arugula_2.png,0,,2751.41,0.0,1.0
24103001,ed_vegetables,2,test,14,assets\ed_vegetables\gourd_2.png,0,,2753.16,0.0,1.0
24103001,ed_vegetables,2,test,15,assets\ed_vegetables\gourd_2.png,1,0.487,2754.9,1.0,1.0
24103001,ed_vegetables,2,test,16,assets\ed_vegetables\bok_choy_2.png,0,,2756.64,0.0,1.0
24103001,ed_vegetables,2,test,17,assets\ed_vegetables\onion_3.png,0,,2758.42,0.0,1.0
24103001,ed_vegetables,2,test,18,assets\ed_vegetables\bell_pepper_2.png,0,,2760.16,0.0,1.0
24103001,ed_vegetables,2,test,19,assets\ed_vegetables\beet_2.png,0,,2761.91,0.0,1.0
24103001,ed_vegetables,2,test,20,assets\ed_vegetables\bell_pepper_1.png,0,,2763.66,0.0,1.0
24103001,ed_vegetables,3,test,0,assets\ed_vegetables\sprouts_2.png,0,,2772.17,,
24103001,ed_vegetables,3,test,1,assets\ed_vegetables\beet_1.png,0,,2773.92,0.0,1.0
24103001,ed_vegetables,3,test,2,assets\ed_vegetables\artichoke_3.png,0,,2775.67,0.0,1.0
24103001,ed_vegetables,3,test,3,assets\ed_vegetables\cauliflower_3.png,0,,2777.44,0.0,1.0
24103001,ed_vegetables,3,test,4,assets\ed_vegetables\brussels_sprouts_1.png,0,,2779.19,0.0,1.0
24103001,ed_vegetables,3,test,5,assets\ed_vegetables\sprouts_3.png,0,,2780.93,0.0,1.0
24103001,ed_vegetables,3,test,6,assets\ed_vegetables\radish_2.png,0,,2782.68,0.0,1.0
24103001,ed_vegetables,3,test,7,assets\ed_vegetables\sprouts_1.png,0,,2784.45,0.0,1.0
24103001,ed_vegetables,3,test,8,assets\ed_vegetables\jalapeno_3.png,0,,2786.19,0.0,1.0
24103001,ed_vegetables,3,test,9,assets\ed_vegetables\rhubarb_3.png,0,,2788.03,0.0,1.0
24103001,ed_vegetables,3,test,10,assets\ed_vegetables\onion_1.png,0,,2789.76,0.0,1.0
24103001,ed_vegetables,3,test,11,assets\ed_vegetables\green_beans_3.png,0,,2791.5,0.0,1.0
24103001,ed_vegetables,3,test,12,assets\ed_vegetables\leek_1.png,0,,2793.59,0.0,1.0
24103001,ed_vegetables,3,test,13,assets\ed_vegetables\bell_pepper_3.png,0,,2795.34,0.0,1.0
24103001,ed_vegetables,3,test,14,assets\ed_vegetables\bell_pepper_3.png,1,0.609,2797.07,1.0,1.0
24103001,ed_vegetables,3,test,15,assets\ed_vegetables\cucumber_1.png,0,,2798.87,0.0,1.0
24103001,ed_vegetables,3,test,16,assets\ed_vegetables\green_beans_2.png,0,,2800.6,0.0,1.0
24103001,ed_vegetables,3,test,17,assets\ed_vegetables\jalapeno_2.png,0,,2802.37,0.0,1.0
24103001,ed_vegetables,3,test,18,assets\ed_vegetables\scallion_1.png,0,,2804.1,0.0,1.0
24103001,ed_vegetables,3,test,19,assets\ed_vegetables\okra_1.png,0,,2805.95,0.0,1.0
24103001,ed_vegetables,3,test,20,assets\ed_vegetables\bok_choy_1.png,0,,2807.68,0.0,1.0
24103001,ed_vegetables,4,test,0,assets\ed_vegetables\arugula_1.png,0,,2815.23,,
24103001,ed_vegetables,4,test,1,assets\ed_vegetables\radish_3.png,0,,2816.97,0.0,1.0
24103001,ed_vegetables,4,test,2,assets\ed_vegetables\chive_3.png,0,,2818.72,0.0,1.0
24103001,ed_vegetables,4,test,3,assets\ed_vegetables\chive_3.png,1,0.671,2820.46,1.0,1.0
24103001,ed_vegetables,4,test,4,assets\ed_vegetables\beet_3.png,0,,2822.19,0.0,1.0
24103001,ed_vegetables,4,test,5,assets\ed_vegetables\onion_2.png,0,,2824.32,0.0,1.0
24103001,ed_vegetables,4,test,6,assets\ed_vegetables\leek_3.png,0,,2826.05,0.0,1.0
24103001,ed_vegetables,4,test,7,assets\ed_vegetables\arugula_2.png,0,,2827.79,0.0,1.0
24103001,ed_vegetables,4,test,8,assets\ed_vegetables\arugula_2.png,1,0.631,2829.53,1.0,1.0
24103001,ed_vegetables,4,test,9,assets\ed_vegetables\arugula_2.png,1,0.618,2831.27,1.0,1.0
24103001,ed_vegetables,4,test,10,assets\ed_vegetables\gourd_3.png,0,,2833.03,0.0,1.0
24103001,ed_vegetables,4,test,11,assets\ed_vegetables\gourd_1.png,0,,2835.06,0.0,1.0
24103001,ed_vegetables,4,test,12,assets\ed_vegetables\okra_3.png,0,,2836.88,0.0,1.0
24103001,ed_vegetables,4,test,13,assets\ed_vegetables\bell_pepper_1.png,0,,2838.61,0.0,1.0
24103001,ed_vegetables,4,test,14,assets\ed_vegetables\cucumber_2.png,0,,2840.4,0.0,1.0
24103001,ed_vegetables,4,test,15,assets\ed_vegetables\radish_1.png,0,,2842.13,0.0,1.0
24103001,ed_vegetables,4,test,16,assets\ed_vegetables\cauliflower_1.png,0,,2843.87,0.0,1.0
24103001,ed_vegetables,4,test,17,assets\ed_vegetables\artichoke_3.png,0,,2845.6,0.0,1.0
24103001,ed_vegetables,4,test,18,assets\ed_vegetables\corn_1.png,0,,2847.35,0.0,1.0
24103001,ed_vegetables,4,test,19,assets\ed_vegetables\cucumber_3.png,0,,2849.13,0.0,1.0
24103001,ed_vegetables,4,test,20,assets\ed_vegetables\radish_2.png,0,,2850.86,0.0,1.0
24103001,ed_vegetables,5,test,0,assets\ed_vegetables\bok_choy_2.png,0,,2859.01,,
24103001,ed_vegetables,5,test,1,assets\ed_vegetables\bell_pepper_2.png,0,,2860.75,0.0,1.0
24103001,ed_vegetables,5,test,2,assets\ed_vegetables\onion_3.png,0,,2862.5,0.0,1.0
24103001,ed_vegetables,5,test,3,assets\ed_vegetables\corn_2.png,0,,2864.26,0.0,1.0
24103001,ed_vegetables,5,test,4,assets\ed_vegetables\brussels_sprouts_3.png,0,,2866.0,0.0,1.0
24103001,ed_vegetables,5,test,5,assets\ed_vegetables\green_beans_1.png,0,,2867.75,0.0,1.0
24103001,ed_vegetables,5,test,6,assets\ed_vegetables\sprouts_3.png,0,,2869.48,0.0,1.0
24103001,ed_vegetables,5,test,7,assets\ed_vegetables\artichoke_1.png,0,,2871.24,0.0,1.0
24103001,ed_vegetables,5,test,8,assets\ed_vegetables\cucumber_1.png,0,,2873.02,0.0,1.0
24103001,ed_vegetables,5,test,9,assets\ed_vegetables\leek_2.png,0,,2874.76,0.0,1.0
24103001,ed_vegetables,5,test,10,assets\ed_vegetables\corn_3.png,0,,2876.5,0.0,1.0
24103001,ed_vegetables,5,test,11,assets\ed_vegetables\rhubarb_3.png,0,,2878.32,0.0,1.0
24103001,ed_vegetables,5,test,12,assets\ed_vegetables\cauliflower_2.png,0,,2880.05,0.0,1.0
24103001,ed_vegetables,5,test,13,assets\ed_vegetables\arugula_3.png,0,,2881.81,0.0,1.0
24103001,ed_vegetables,5,test,14,assets\ed_vegetables\bok_choy_1.png,0,,2883.54,0.0,1.0
24103001,ed_vegetables,5,test,15,assets\ed_vegetables\green_beans_3.png,0,,2885.28,0.0,1.0
24103001,ed_vegetables,5,test,16,assets\ed_vegetables\green_beans_3.png,1,0.778,2887.01,1.0,1.0
24103001,ed_vegetables,5,test,17,assets\ed_vegetables\green_beans_3.png,1,0.673,2888.75,1.0,1.0
24103001,ed_vegetables,5,test,18,assets\ed_vegetables\green_beans_3.png,1,0.584,2890.49,1.0,1.0
24103001,ed_vegetables,5,test,19,assets\ed_vegetables\green_beans_3.png,1,0.465,2892.22,1.0,1.0
24103001,ed_vegetables,5,test,20,assets\ed_vegetables\chive_3.png,0,,2893.97,0.0,1.0
24103001,ed_vegetables,6,test,0,assets\ed_vegetables\radish_3.png,0,,2901.42,,
24103001,ed_vegetables,6,test,1,assets\ed_vegetables\beet_2.png,0,,2903.16,0.0,1.0
24103001,ed_vegetables,6,test,2,assets\ed_vegetables\beet_2.png,1,0.663,2904.9,1.0,1.0
24103001,ed_vegetables,6,test,3,assets\ed_vegetables\beet_3.png,0,,2906.63,0.0,1.0
24103001,ed_vegetables,6,test,4,assets\ed_vegetables\gourd_2.png,0,,2908.38,0.0,1.0
24103001,ed_vegetables,6,test,5,assets\ed_vegetables\artichoke_2.png,0,,2910.12,0.0,1.0
24103001,ed_vegetables,6,test,6,assets\ed_vegetables\onion_1.png,0,,2911.85,0.0,1.0
24103001,ed_vegetables,6,test,7,assets\ed_vegetables\bell_pepper_1.png,0,,2913.58,0.0,1.0
24103001,ed_vegetables,6,test,8,assets\ed_vegetables\cauliflower_3.png,0,,2915.33,0.0,1.0
24103001,ed_vegetables,6,test,9,assets\ed_vegetables\gourd_3.png,0,,2917.08,0.0,1.0
24103001,ed_vegetables,6,test,10,assets\ed_vegetables\onion_2.png,0,,2919.2,0.0,1.0
24103001,ed_vegetables,6,test,11,assets\ed_vegetables\radish_1.png,0,,2920.94,0.0,1.0
24103001,ed_vegetables,6,test,12,assets\ed_vegetables\scallion_1.png,0,,2922.68,0.0,1.0
24103001,ed_vegetables,6,test,13,assets\ed_vegetables\bell_pepper_3.png,0,,2924.41,0.0,1.0
24103001,ed_vegetables,6,test,14,assets\ed_vegetables\scallion_3.png,0,,2926.15,0.0,1.0
24103001,ed_vegetables,6,test,15,assets\ed_vegetables\rhubarb_2.png,0,,2927.89,0.0,1.0
24103001,ed_vegetables,6,test,16,assets\ed_vegetables\sprouts_1.png,0,,2929.63,0.0,1.0
24103001,ed_vegetables,6,test,17,assets\ed_vegetables\bell_pepper_2.png,0,,2931.37,0.0,1.0
24103001,ed_vegetables,6,test,18,assets\ed_vegetables\beet_1.png,0,,2933.11,0.0,1.0
24103001,ed_vegetables,6,test,19,assets\ed_vegetables\brussels_sprouts_3.png,0,,2934.85,0.0,1.0
24103001,ed_vegetables,6,test,20,assets\ed_vegetables\radish_2.png,0,,2936.58,0.0,1.0
24103001,ed_vegetables,7,test,0,assets\ed_vegetables\leek_3.png,0,,2944.21,,
24103001,ed_vegetables,7,test,1,assets\ed_vegetables\onion_3.png,0,,2945.97,0.0,1.0
24103001,ed_vegetables,7,test,2,assets\ed_vegetables\green_beans_1.png,0,,2947.71,0.0,1.0
24103001,ed_vegetables,7,test,3,assets\ed_vegetables\scallion_2.png,0,,2949.44,0.0,1.0
24103001,ed_vegetables,7,test,4,assets\ed_vegetables\jalapeno_1.png,0,,2951.18,0.0,1.0
24103001,ed_vegetables,7,test,5,assets\ed_vegetables\rhubarb_1.png,0,,2952.91,0.0,1.0
24103001,ed_vegetables,7,test,6,assets\ed_vegetables\jalapeno_2.png,0,,2954.65,0.0,1.0
24103001,ed_vegetables,7,test,7,assets\ed_vegetables\rhubarb_3.png,0,,2956.45,0.0,1.0
24103001,ed_vegetables,7,test,8,assets\ed_vegetables\cauliflower_1.png,0,,2958.19,0.0,1.0
24103001,ed_vegetables,7,test,9,assets\ed_vegetables\jalapeno_3.png,0,,2959.92,0.0,1.0
24103001,ed_vegetables,7,test,10,assets\ed_vegetables\leek_1.png,0,,2962.0,0.0,1.0
24103001,ed_vegetables,7,test,11,assets\ed_vegetables\leek_2.png,0,,2963.73,0.0,1.0
24103001,ed_vegetables,7,test,12,assets\ed_vegetables\sprouts_2.png,0,,2965.47,0.0,1.0
24103001,ed_vegetables,7,test,13,assets\ed_vegetables\chive_2.png,0,,2967.21,0.0,1.0
24103001,ed_vegetables,7,test,14,assets\ed_vegetables\sprouts_3.png,0,,2968.95,0.0,1.0
24103001,ed_vegetables,7,test,15,assets\ed_vegetables\bok_choy_2.png,0,,2970.68,0.0,1.0
24103001,ed_vegetables,7,test,16,assets\ed_vegetables\chive_1.png,0,,2972.42,0.0,1.0
24103001,ed_vegetables,7,test,17,assets\ed_vegetables\bell_pepper_1.png,0,,2974.16,0.0,1.0
24103001,ed_vegetables,7,test,18,assets\ed_vegetables\corn_1.png,0,,2975.9,0.0,1.0
24103001,ed_vegetables,7,test,19,assets\ed_vegetables\okra_1.png,0,,2977.74,0.0,1.0
24103001,ed_vegetables,7,test,20,assets\ed_vegetables\bok_choy_3.png,0,,2979.51,0.0,1.0
24103001,ed_vegetables,8,test,0,assets\ed_vegetables\gourd_1.png,0,,2987.61,,
24103001,ed_vegetables,8,test,1,assets\ed_vegetables\radish_1.png,0,,2989.34,0.0,1.0
24103001,ed_vegetables,8,test,2,assets\ed_vegetables\radish_1.png,1,0.636,2991.08,1.0,1.0
24103001,ed_vegetables,8,test,3,assets\ed_vegetables\bell_pepper_3.png,0,,2992.81,0.0,1.0
24103001,ed_vegetables,8,test,4,assets\ed_vegetables\scallion_1.png,0,,2994.54,0.0,1.0
24103001,ed_vegetables,8,test,5,assets\ed_vegetables\beet_2.png,0,,2996.28,0.0,1.0
24103001,ed_vegetables,8,test,6,assets\ed_vegetables\sprouts_1.png,0,,2998.02,0.0,1.0
24103001,ed_vegetables,8,test,7,assets\ed_vegetables\brussels_sprouts_2.png,0,,2999.77,0.0,1.0
24103001,ed_vegetables,8,test,8,assets\ed_vegetables\corn_2.png,0,,3001.52,0.0,1.0
24103001,ed_vegetables,8,test,9,assets\ed_vegetables\cucumber_2.png,0,,3003.29,0.0,1.0
24103001,ed_vegetables,8,test,10,assets\ed_vegetables\okra_3.png,0,,3005.11,0.0,1.0
24103001,ed_vegetables,8,test,11,assets\ed_vegetables\green_beans_3.png,0,,3006.87,0.0,1.0
24103001,ed_vegetables,8,test,12,assets\ed_vegetables\cauliflower_2.png,0,,3008.6,0.0,1.0
24103001,ed_vegetables,8,test,13,assets\ed_vegetables\cauliflower_2.png,1,0.717,3010.34,1.0,1.0
24103001,ed_vegetables,8,test,14,assets\ed_vegetables\radish_2.png,0,,3012.07,0.0,1.0
24103001,ed_vegetables,8,test,15,assets\ed_vegetables\arugula_1.png,0,,3013.82,0.0,1.0
24103001,ed_vegetables,8,test,16,assets\ed_vegetables\leek_3.png,0,,3015.55,0.0,1.0
24103001,ed_vegetables,8,test,17,assets\ed_vegetables\arugula_3.png,0,,3017.29,0.0,1.0
24103001,ed_vegetables,8,test,18,assets\ed_vegetables\arugula_3.png,1,0.618,3019.03,1.0,1.0
24103001,ed_vegetables,8,test,19,assets\ed_vegetables\cucumber_3.png,0,,3020.79,0.0,1.0
24103001,ed_vegetables,8,test,20,assets\ed_vegetables\jalapeno_2.png,0,,3022.53,0.0,1.0
24103001,ed_vegetables,9,test,0,assets\ed_vegetables\artichoke_1.png,0,,3030.35,,
24103001,ed_vegetables,9,test,1,assets\ed_vegetables\beet_3.png,0,,3032.08,0.0,1.0
24103001,ed_vegetables,9,test,2,assets\ed_vegetables\bok_choy_1.png,0,,3033.81,0.0,1.0
24103001,ed_vegetables,9,test,3,assets\ed_vegetables\artichoke_2.png,0,,3035.56,0.0,1.0
24103001,ed_vegetables,9,test,4,assets\ed_vegetables\onion_3.png,0,,3037.32,0.0,1.0
24103001,ed_vegetables,9,test,5,assets\ed_vegetables\onion_3.png,1,0.753,3039.07,1.0,1.0
24103001,ed_vegetables,9,test,6,assets\ed_vegetables\artichoke_3.png,0,,3040.8,0.0,1.0
24103001,ed_vegetables,9,test,7,assets\ed_vegetables\chive_3.png,0,,3042.56,0.0,1.0
24103001,ed_vegetables,9,test,8,assets\ed_vegetables\jalapeno_1.png,0,,3044.3,0.0,1.0
24103001,ed_vegetables,9,test,9,assets\ed_vegetables\green_beans_2.png,0,,3046.04,0.0,1.0
24103001,ed_vegetables,9,test,10,assets\ed_vegetables\rhubarb_3.png,0,,3047.86,0.0,1.0
24103001,ed_vegetables,9,test,11,assets\ed_vegetables\gourd_2.png,0,,3049.6,0.0,1.0
24103001,ed_vegetables,9,test,12,assets\ed_vegetables\sprouts_3.png,0,,3051.34,0.0,1.0
24103001,ed_vegetables,9,test,13,assets\ed_vegetables\cauliflower_3.png,0,,3053.08,0.0,1.0
24103001,ed_vegetables,9,test,14,assets\ed_vegetables\bell_pepper_2.png,0,,3054.82,0.0,1.0
24103001,ed_vegetables,9,test,15,assets\ed_vegetables\brussels_sprouts_1.png,0,,3056.55,0.0,1.0
24103001,ed_vegetables,9,test,16,assets\ed_vegetables\chive_2.png,0,,3058.29,0.0,1.0
24103001,ed_vegetables,9,test,17,assets\ed_vegetables\okra_1.png,0,,3060.18,0.0,1.0
24103001,ed_vegetables,9,test,18,assets\ed_vegetables\okra_1.png,1,0.578,3062.02,1.0,1.0
24103001,ed_vegetables,9,test,19,assets\ed_vegetables\radish_3.png,0,,3063.76,0.0,1.0
24103001,ed_vegetables,9,test,20,assets\ed_vegetables\okra_2.png,0,,3065.61,0.0,1.0
24103001,ed_vegetables,10,test,0,assets\ed_vegetables\sprouts_1.png,0,,3074.28,,
24103001,ed_vegetables,10,test,1,assets\ed_vegetables\sprouts_1.png,1,0.552,3076.02,1.0,1.0
24103001,ed_vegetables,10,test,2,assets\ed_vegetables\sprouts_1.png,1,0.579,3077.76,1.0,1.0
24103001,ed_vegetables,10,test,3,assets\ed_vegetables\brussels_sprouts_3.png,0,,3079.51,0.0,1.0
24103001,ed_vegetables,10,test,4,assets\ed_vegetables\brussels_sprouts_3.png,1,0.807,3081.25,1.0,1.0
24103001,ed_vegetables,10,test,5,assets\ed_vegetables\bell_pepper_1.png,0,,3082.98,0.0,1.0
24103001,ed_vegetables,10,test,6,assets\ed_vegetables\radish_1.png,0,,3084.72,0.0,1.0
24103001,ed_vegetables,10,test,7,assets\ed_vegetables\corn_3.png,0,,3086.46,0.0,1.0
24103001,ed_vegetables,10,test,8,assets\ed_vegetables\onion_2.png,0,,3088.57,0.0,1.0
24103001,ed_vegetables,10,test,9,assets\ed_vegetables\cucumber_1.png,0,,3090.34,0.0,1.0
24103001,ed_vegetables,10,test,10,assets\ed_vegetables\bok_choy_3.png,0,,3092.08,0.0,1.0
24103001,ed_vegetables,10,test,11,assets\ed_vegetables\brussels_sprouts_2.png,0,,3093.82,0.0,1.0
24103001,ed_vegetables,10,test,12,assets\ed_vegetables\cauliflower_2.png,0,,3095.55,0.0,1.0
24103001,ed_vegetables,10,test,13,assets\ed_vegetables\okra_3.png,0,,3097.37,0.0,1.0
24103001,ed_vegetables,10,test,14,assets\ed_vegetables\corn_1.png,0,,3099.12,0.0,1.0
24103001,ed_vegetables,10,test,15,assets\ed_vegetables\sprouts_2.png,0,,3100.86,0.0,1.0
24103001,ed_vegetables,10,test,16,assets\ed_vegetables\arugula_1.png,0,,3102.6,0.0,1.0
24103001,ed_vegetables,10,test,17,assets\ed_vegetables\leek_2.png,0,,3104.33,0.0,1.0
24103001,ed_vegetables,10,test,18,assets\ed_vegetables\bok_choy_2.png,0,,3106.06,0.0,1.0
24103001,ed_vegetables,10,test,19,assets\ed_vegetables\arugula_3.png,0,,3107.8,0.0,1.0
24103001,ed_vegetables,10,test,20,assets\ed_vegetables\rhubarb_1.png,0,,3109.54,0.0,1.0
24103001,ed_desserts,1,test,0,assets\ed_desserts\parfait_1.png,0,,3142.69,,
24103001,ed_desserts,1,test,1,assets\ed_desserts\milkshake_1.png,0,,3144.45,0.0,1.0
24103001,ed_desserts,1,test,2,assets\ed_desserts\chocolate_2.png,0,,3146.3,0.0,1.0
24103001,ed_desserts,1,test,3,assets\ed_desserts\cake_3.png,0,,3148.05,0.0,1.0
24103001,ed_desserts,1,test,4,assets\ed_desserts\parfait_3.png,0,,3149.8,0.0,1.0
24103001,ed_desserts,1,test,5,assets\ed_desserts\donut_2.png,0,,3151.56,0.0,1.0
24103001,ed_desserts,1,test,6,assets\ed_desserts\sorbet_1.png,0,,3153.32,0.0,1.0
24103001,ed_desserts,1,test,7,assets\ed_desserts\popsicle_2.png,0,,3155.07,0.0,1.0
24103001,ed_desserts,1,test,8,assets\ed_desserts\flan_2.png,0,,3156.83,0.0,1.0
24103001,ed_desserts,1,test,9,assets\ed_desserts\pudding_1.png,0,,3158.59,0.0,1.0
24103001,ed_desserts,1,test,10,assets\ed_desserts\cheesecake_3.png,0,,3160.35,0.0,1.0
24103001,ed_desserts,1,test,11,assets\ed_desserts\fudge_2.png,0,,3162.1,0.0,1.0
24103001,ed_desserts,1,test,12,assets\ed_desserts\brownie_3.png,0,,3163.88,0.0,1.0
24103001,ed_desserts,1,test,13,assets\ed_desserts\popsicle_3.png,0,,3165.63,0.0,1.0
24103001,ed_desserts,1,test,14,assets\ed_desserts\donut_1.png,0,,3167.55,0.0,1.0
24103001,ed_desserts,1,test,15,assets\ed_desserts\whipped_cream_1.png,0,,3169.31,0.0,1.0
24103001,ed_desserts,1,test,16,assets\ed_desserts\whipped_cream_2.png,0,,3171.07,0.0,1.0
24103001,ed_desserts,1,test,17,assets\ed_desserts\sundae_2.png,0,,3172.82,0.0,1.0
24103001,ed_desserts,1,test,18,assets\ed_desserts\milkshake_3.png,0,,3174.58,0.0,1.0
24103001,ed_desserts,1,test,19,assets\ed_desserts\sorbet_3.png,0,,3176.34,0.0,1.0
24103001,ed_desserts,1,test,20,assets\ed_desserts\fudge_1.png,0,,3178.08,0.0,1.0
24103001,ed_desserts,2,test,0,assets\ed_desserts\mousse_2.png,0,,3185.66,,
24103001,ed_desserts,2,test,1,assets\ed_desserts\milkshake_2.png,0,,3187.4,0.0,1.0
24103001,ed_desserts,2,test,2,assets\ed_desserts\sorbet_2.png,0,,3189.17,0.0,1.0
24103001,ed_desserts,2,test,3,assets\ed_desserts\cake_2.png,0,,3190.93,0.0,1.0
24103001,ed_desserts,2,test,4,assets\ed_desserts\parfait_2.png,0,,3192.68,0.0,1.0
24103001,ed_desserts,2,test,5,assets\ed_desserts\tiramisu_2.png,0,,3194.42,0.0,1.0
24103001,ed_desserts,2,test,6,assets\ed_desserts\wedding_cake_2.png,0,,3196.17,0.0,1.0
24103001,ed_desserts,2,test,7,assets\ed_desserts\chocolate_1.png,0,,3197.91,0.0,1.0
24103001,ed_desserts,2,test,8,assets\ed_desserts\cake_1.png,0,,3199.66,0.0,1.0
24103001,ed_desserts,2,test,9,assets\ed_desserts\cheesecake_1.png,0,,3201.42,0.0,1.0
24103001,ed_desserts,2,test,10,assets\ed_desserts\cheesecake_1.png,1,0.781,3203.16,1.0,1.0
24103001,ed_desserts,2,test,11,assets\ed_desserts\cheesecake_1.png,0,,3204.91,1.0,0.0
24103001,ed_desserts,2,test,12,assets\ed_desserts\fruitcake_2.png,1,0.104,3206.65,0.0,0.0
24103001,ed_desserts,2,test,13,assets\ed_desserts\flan_3.png,0,,3208.4,0.0,1.0
24103001,ed_desserts,2,test,14,assets\ed_desserts\fudge_3.png,0,,3210.16,0.0,1.0
24103001,ed_desserts,2,test,15,assets\ed_desserts\mousse_3.png,0,,3211.91,0.0,1.0
24103001,ed_desserts,2,test,16,assets\ed_desserts\banana_split_1.png,0,,3213.67,0.0,1.0
24103001,ed_desserts,2,test,17,assets\ed_desserts\donut_2.png,0,,3215.4,0.0,1.0
24103001,ed_desserts,2,test,18,assets\ed_desserts\donut_3.png,0,,3217.14,0.0,1.0
24103001,ed_desserts,2,test,19,assets\ed_desserts\pudding_3.png,0,,3218.89,0.0,1.0
24103001,ed_desserts,2,test,20,assets\ed_desserts\fruitcake_3.png,0,,3220.65,0.0,1.0
24103001,ed_desserts,3,test,0,assets\ed_desserts\wedding_cake_1.png,0,,3228.75,,
24103001,ed_desserts,3,test,1,assets\ed_desserts\cupcake_2.png,0,,3230.75,0.0,1.0
24103001,ed_desserts,3,test,2,assets\ed_desserts\cheesecake_3.png,0,,3232.5,0.0,1.0
24103001,ed_desserts,3,test,3,assets\ed_desserts\fudge_2.png,0,,3234.24,0.0,1.0
24103001,ed_desserts,3,test,4,assets\ed_desserts\brownie_3.png,0,,3236.0,0.0,1.0
24103001,ed_desserts,3,test,5,assets\ed_desserts\donut_1.png,0,,3237.92,0.0,1.0
24103001,ed_desserts,3,test,6,assets\ed_desserts\cake_3.png,0,,3239.66,0.0,1.0
24103001,ed_desserts,3,test,7,assets\ed_desserts\sundae_3.png,0,,3241.41,0.0,1.0
24103001,ed_desserts,3,test,8,assets\ed_desserts\parfait_3.png,0,,3243.15,0.0,1.0
24103001,ed_desserts,3,test,9,assets\ed_desserts\sundae_2.png,0,,3244.89,0.0,1.0
24103001,ed_desserts,3,test,10,assets\ed_desserts\whipped_cream_3.png,0,,3246.64,0.0,1.0
24103001,ed_desserts,3,test,11,assets\ed_desserts\whipped_cream_3.png,1,0.643,3248.37,1.0,1.0
24103001,ed_desserts,3,test,12,assets\ed_desserts\cupcake_1.png,0,,3250.15,0.0,1.0
24103001,ed_desserts,3,test,13,assets\ed_desserts\flan_2.png,0,,3251.88,0.0,1.0
24103001,ed_desserts,3,test,14,assets\ed_desserts\banana_split_3.png,0,,3253.63,0.0,1.0
24103001,ed_desserts,3,test,15,assets\ed_desserts\cupcake_3.png,0,,3255.63,0.0,1.0
24103001,ed_desserts,3,test,16,assets\ed_desserts\mousse_2.png,0,,3257.36,0.0,1.0
24103001,ed_desserts,3,test,17,assets\ed_desserts\popsicle_1.png,0,,3259.13,0.0,1.0
24103001,ed_desserts,3,test,18,assets\ed_desserts\fudge_1.png,0,,3260.86,0.0,1.0
24103001,ed_desserts,3,test,19,assets\ed_desserts\milkshake_2.png,0,,3262.59,0.0,1.0
24103001,ed_desserts,3,test,20,assets\ed_desserts\wedding_cake_2.png,0,,3264.32,0.0,1.0
24103001,ed_desserts,4,test,0,assets\ed_desserts\whipped_cream_1.png,0,,3272.17,,
24103001,ed_desserts,4,test,1,assets\ed_desserts\whipped_cream_1.png,1,0.769,3273.9,1.0,1.0
24103001,ed_desserts,4,test,2,assets\ed_desserts\whipped_cream_1.png,1,0.635,3275.64,1.0,1.0
24103001,ed_desserts,4,test,3,assets\ed_desserts\popsicle_2.png,0,,3277.37,0.0,1.0
24103001,ed_desserts,4,test,4,assets\ed_desserts\sorbet_1.png,0,,3279.11,0.0,1.0
24103001,ed_desserts,4,test,5,assets\ed_desserts\fruitcake_1.png,0,,3280.85,0.0,1.0
24103001,ed_desserts,4,test,6,assets\ed_desserts\fruitcake_1.png,0,,3282.59,1.0,0.0
24103001,ed_desserts,4,test,7,assets\ed_desserts\sundae_1.png,1,0.103,3284.33,0.0,0.0
24103001,ed_desserts,4,test,8,assets\ed_desserts\pudding_2.png,0,,3286.11,0.0,1.0
24103001,ed_desserts,4,test,9,assets\ed_desserts\cheesecake_1.png,0,,3287.85,0.0,1.0
24103001,ed_desserts,4,test,10,assets\ed_desserts\chocolate_3.png,0,,3289.61,0.0,1.0
24103001,ed_desserts,4,test,11,assets\ed_desserts\parfait_1.png,0,,3291.35,0.0,1.0
24103001,ed_desserts,4,test,12,assets\ed_desserts\tiramisu_2.png,0,,3293.09,0.0,1.0
24103001,ed_desserts,4,test,13,assets\ed_desserts\milkshake_3.png,0,,3294.82,0.0,1.0
24103001,ed_desserts,4,test,14,assets\ed_desserts\sorbet_2.png,0,,3296.58,0.0,1.0
24103001,ed_desserts,4,test,15,assets\ed_desserts\flan_1.png,0,,3298.33,0.0,1.0
24103001,ed_desserts,4,test,16,assets\ed_desserts\chocolate_1.png,0,,3300.07,0.0,1.0
24103001,ed_desserts,4,test,17,assets\ed_desserts\wedding_cake_1.png,0,,3301.8,0.0,1.0
24103001,ed_desserts,4,test,18,assets\ed_desserts\tiramisu_3.png,0,,3303.78,0.0,1.0
24103001,ed_desserts,4,test,19,assets\ed_desserts\tiramisu_3.png,1,0.555,3305.67,1.0,1.0
24103001,ed_desserts,4,test,20,assets\ed_desserts\tiramisu_1.png,0,,3307.4,0.0,1.0
24103001,ed_desserts,5,test,0,assets\ed_desserts\cake_3.png,0,,3315.34,,
24103001,ed_desserts,5,test,1,assets\ed_desserts\whipped_cream_2.png,0,,3317.08,0.0,1.0
24103001,ed_desserts,5,test,2,assets\ed_desserts\whipped_cream_2.png,1,0.502,3318.82,1.0,1.0
24103001,ed_desserts,5,test,3,assets\ed_desserts\banana_split_2.png,0,,3320.56,0.0,1.0
24103001,ed_desserts,5,test,4,assets\ed_desserts\fruitcake_2.png,0,,3322.3,0.0,1.0
24103001,ed_desserts,5,test,5,assets\ed_desserts\banana_split_1.png,0,,3324.04,0.0,1.0
24103001,ed_desserts,5,test,6,assets\ed_desserts\brownie_3.png,0,,3325.79,0.0,1.0
24103001,ed_desserts,5,test,7,assets\ed_desserts\popsicle_3.png,0,,3327.52,0.0,1.0
24103001,ed_desserts,5,test,8,assets\ed_desserts\fudge_3.png,0,,3329.25,0.0,1.0
24103001,ed_desserts,5,test,9,assets\ed_desserts\cake_1.png,0,,3330.99,0.0,1.0
24103001,ed_desserts,5,test,10,assets\ed_desserts\cupcake_2.png,0,,3332.99,0.0,1.0
24103001,ed_desserts,5,test,11,assets\ed_desserts\cupcake_2.png,1,0.787,3334.92,1.0,1.0
24103001,ed_desserts,5,test,12,assets\ed_desserts\donut_3.png,0,,3336.66,0.0,1.0
24103001,ed_desserts,5,test,13,assets\ed_desserts\brownie_1.png,0,,3338.55,0.0,1.0
24103001,ed_desserts,5,test,14,assets\ed_desserts\cheesecake_3.png,0,,3340.29,0.0,1.0
24103001,ed_desserts,5,test,15,assets\ed_desserts\popsicle_1.png,0,,3342.03,0.0,1.0
24103001,ed_desserts,5,test,16,assets\ed_desserts\pudding_1.png,0,,3343.77,0.0,1.0
24103001,ed_desserts,5,test,17,assets\ed_desserts\cake_2.png,0,,3345.51,0.0,1.0
24103001,ed_desserts,5,test,18,assets\ed_desserts\cheesecake_2.png,0,,3347.26,0.0,1.0
24103001,ed_desserts,5,test,19,assets\ed_desserts\cheesecake_2.png,1,0.594,3349.0,1.0,1.0
24103001,ed_desserts,5,test,20,assets\ed_desserts\donut_1.png,0,,3350.86,0.0,1.0
24103001,ed_desserts,6,test,0,assets\ed_desserts\fruitcake_1.png,0,,3358.59,,
24103001,ed_desserts,6,test,1,assets\ed_desserts\pudding_3.png,0,,3360.33,0.0,1.0
24103001,ed_desserts,6,test,2,assets\ed_desserts\brownie_2.png,0,,3362.09,0.0,1.0
24103001,ed_desserts,6,test,3,assets\ed_desserts\banana_split_3.png,0,,3363.83,0.0,1.0
24103001,ed_desserts,6,test,4,assets\ed_desserts\parfait_3.png,0,,3365.57,0.0,1.0
24103001,ed_desserts,6,test,5,assets\ed_desserts\fudge_2.png,0,,3367.31,0.0,1.0
24103001,ed_desserts,6,test,6,assets\ed_desserts\whipped_cream_3.png,0,,3369.05,0.0,1.0
24103001,ed_desserts,6,test,7,assets\ed_desserts\fudge_1.png,0,,3370.79,0.0,1.0
24103001,ed_desserts,6,test,8,assets\ed_desserts\mousse_3.png,0,,3372.54,0.0,1.0
24103001,ed_desserts,6,test,9,assets\ed_desserts\pudding_2.png,0,,3374.29,0.0,1.0
24103001,ed_desserts,6,test,10,assets\ed_desserts\milkshake_3.png,0,,3376.03,0.0,1.0
24103001,ed_desserts,6,test,11,assets\ed_desserts\cupcake_3.png,0,,3378.02,0.0,1.0
24103001,ed_desserts,6,test,12,assets\ed_desserts\cupcake_3.png,1,0.745,3379.93,1.0,1.0
24103001,ed_desserts,6,test,13,assets\ed_desserts\mousse_1.png,0,,3381.69,0.0,1.0
24103001,ed_desserts,6,test,14,assets\ed_desserts\sorbet_2.png,0,,3383.46,0.0,1.0
24103001,ed_desserts,6,test,15,assets\ed_desserts\cupcake_1.png,0,,3385.24,0.0,1.0
24103001,ed_desserts,6,test,16,assets\ed_desserts\mousse_2.png,0,,3386.98,0.0,1.0
24103001,ed_desserts,6,test,17,assets\ed_desserts\milkshake_2.png,0,,3388.72,0.0,1.0
24103001,ed_desserts,6,test,18,assets\ed_desserts\popsicle_2.png,0,,3390.46,0.0,1.0
24103001,ed_desserts,6,test,19,assets\ed_desserts\flan_2.png,0,,3392.21,0.0,1.0
24103001,ed_desserts,6,test,20,assets\ed_desserts\sundae_1.png,0,,3393.96,0.0,1.0
24103001,ed_desserts,7,test,0,assets\ed_desserts\banana_split_2.png,0,,3401.64,,
24103001,ed_desserts,7,test,1,assets\ed_desserts\banana_split_2.png,1,0.736,3403.38,1.0,1.0
24103001,ed_desserts,7,test,2,assets\ed_desserts\chocolate_2.png,0,,3405.23,0.0,1.0
24103001,ed_desserts,7,test,3,assets\ed_desserts\chocolate_2.png,1,0.73,3407.06,1.0,1.0
24103001,ed_desserts,7,test,4,assets\ed_desserts\cheesecake_1.png,0,,3408.82,0.0,1.0
24103001,ed_desserts,7,test,5,assets\ed_desserts\chocolate_3.png,0,,3410.58,0.0,1.0
24103001,ed_desserts,7,test,6,assets\ed_desserts\flan_3.png,0,,3412.32,0.0,1.0
24103001,ed_desserts,7,test,7,assets\ed_desserts\brownie_1.png,0,,3414.21,0.0,1.0
24103001,ed_desserts,7,test,8,assets\ed_desserts\whipped_cream_2.png,0,,3415.96,0.0,1.0
24103001,ed_desserts,7,test,9,assets\ed_desserts\milkshake_1.png,0,,3417.7,0.0,1.0
24103001,ed_desserts,7,test,10,assets\ed_desserts\brownie_3.png,0,,3419.47,0.0,1.0
24103001,ed_desserts,7,test,11,assets\ed_desserts\popsicle_1.png,0,,3421.21,0.0,1.0
24103001,ed_desserts,7,test,12,assets\ed_desserts\parfait_2.png,0,,3422.95,0.0,1.0
24103001,ed_desserts,7,test,13,assets\ed_desserts\banana_split_1.png,0,,3424.71,0.0,1.0
24103001,ed_desserts,7,test,14,assets\ed_desserts\flan_1.png,0,,3426.46,0.0,1.0
24103001,ed_desserts,7,test,15,assets\ed_desserts\brownie_2.png,0,,3428.22,0.0,1.0
24103001,ed_desserts,7,test,16,assets\ed_desserts\pudding_1.png,0,,3429.96,0.0,1.0
24103001,ed_desserts,7,test,17,assets\ed_desserts\sorbet_3.png,0,,3431.71,0.0,1.0
24103001,ed_desserts,7,test,18,assets\ed_desserts\sorbet_3.png,1,0.684,3433.44,1.0,1.0
24103001,ed_desserts,7,test,19,assets\ed_desserts\sundae_2.png,0,,3435.19,0.0,1.0
