subject,condition,block,procedure,trial,item,response,RT,time,correct,accuracy
24102801,ed_birds,1,test,0,assets\ed_birds\goose_1.png,0,,76.19,,
24102801,ed_birds,1,test,1,assets\ed_birds\hummingbird_2.png,0,,77.94,0.0,1.0
24102801,ed_birds,1,test,2,assets\ed_birds\duckling_1.png,0,,79.7,0.0,1.0
24102801,ed_birds,1,test,3,assets\ed_birds\rooster_3.png,0,,81.45,0.0,1.0
24102801,ed_birds,1,test,4,assets\ed_birds\goose_3.png,0,,83.2,0.0,1.0
24102801,ed_birds,1,test,5,assets\ed_birds\cardinal_2.png,0,,84.95,0.0,1.0
24102801,ed_birds,1,test,6,assets\ed_birds\turkey_1.png,0,,86.83,0.0,1.0
24102801,ed_birds,1,test,7,assets\ed_birds\peacock_3.png,0,,88.58,0.0,1.0
24102801,ed_birds,1,test,8,assets\ed_birds\pheasant_1.png,0,,90.33,0.0,1.0
24102801,ed_birds,1,test,9,assets\ed_birds\puffin_3.png,0,,92.07,0.0,1.0
24102801,ed_birds,1,test,10,assets\ed_birds\seagull_2.png,0,,93.82,0.0,1.0
24102801,ed_birds,1,test,11,assets\ed_birds\vulture_3.png,0,,95.56,0.0,1.0
24102801,ed_birds,1,test,12,assets\ed_birds\vulture_1.png,0,,97.31,0.0,1.0
24102801,ed_birds,1,test,13,assets\ed_birds\pelican_2.png,0,,99.05,0.0,1.0
24102801,ed_birds,1,test,14,assets\ed_birds\puffin_2.png,0,,100.81,0.0,1.0
24102801,ed_birds,1,test,15,assets\ed_birds\swan_2.png,0,,102.56,0.0,1.0
24102801,ed_birds,1,test,16,assets\ed_birds\turkey_3.png,0,,104.3,0.0,1.0
24102801,ed_birds,1,test,17,assets\ed_birds\pigeon_2.png,0,,106.04,0.0,1.0
24102801,ed_birds,1,test,18,assets\ed_birds\peacock_2.png,0,,107.78,0.0,1.0
24102801,ed_birds,1,test,19,assets\ed_birds\flamingo_2.png,0,,109.53,0.0,1.0
24102801,ed_birds,1,test,20,assets\ed_birds\crow_2.png,0,,111.27,0.0,1.0
24102801,ed_birds,2,test,0,assets\ed_birds\turkey_2.png,0,,126.56,,
24102801,ed_birds,2,test,1,assets\ed_birds\toucan_1.png,0,,128.31,0.0,1.0
24102801,ed_birds,2,test,2,assets\ed_birds\flamingo_1.png,1,0.787,130.05,0.0,0.0
24102801,ed_birds,2,test,3,assets\ed_birds\swan_1.png,0,,131.79,0.0,1.0
24102801,ed_birds,2,test,4,assets\ed_birds\seagull_1.png,1,0.104,133.53,0.0,0.0
24102801,ed_birds,2,test,5,assets\ed_birds\peacock_1.png,0,,135.29,0.0,1.0
24102801,ed_birds,2,test,6,assets\ed_birds\flamingo_3.png,1,0.103,137.03,0.0,0.0
24102801,ed_birds,2,test,7,assets\ed_birds\ostrich_2.png,0,,138.79,0.0,1.0
24102801,ed_birds,2,test,8,assets\ed_birds\swan_3.png,1,0.105,140.52,0.0,0.0
24102801,ed_birds,2,test,9,assets\ed_birds\rooster_2.png,1,0.619,142.27,0.0,0.0
24102801,ed_birds,2,test,10,assets\ed_birds\rooster_2.png,0,,144.01,1.0,0.0
24102801,ed_birds,2,test,11,assets\ed_birds\pelican_1.png,1,0.104,145.76,0.0,0.0
24102801,ed_birds,2,test,12,assets\ed_birds\vulture_2.png,0,,147.49,0.0,1.0
24102801,ed_birds,2,test,13,assets\ed_birds\duckling_3.png,0,,149.23,0.0,1.0
24102801,ed_birds,2,test,14,assets\ed_birds\hummingbird_1.png,0,,150.97,0.0,1.0
24102801,ed_birds,2,test,15,assets\ed_birds\penguin_3.png,0,,152.71,0.0,1.0
24102801,ed_birds,2,test,16,assets\ed_birds\rooster_3.png,0,,154.44,0.0,1.0
24102801,ed_birds,2,test,17,assets\ed_birds\toucan_3.png,0,,156.18,0.0,1.0
24102801,ed_birds,2,test,18,assets\ed_birds\eagle_2.png,0,,157.92,0.0,1.0
24102801,ed_birds,2,test,19,assets\ed_birds\rooster_1.png,0,,159.67,0.0,1.0
24102801,ed_birds,2,test,20,assets\ed_birds\eagle_1.png,0,,161.4,0.0,1.0
24102801,ed_birds,3,test,0,assets\ed_birds\seagull_2.png,0,,169.42,,
24102801,ed_birds,3,test,1,assets\ed_birds\ostrich_3.png,0,,171.17,0.0,1.0
24102801,ed_birds,3,test,2,assets\ed_birds\crow_1.png,0,,172.92,0.0,1.0
24102801,ed_birds,3,test,3,assets\ed_birds\hummingbird_3.png,0,,174.67,0.0,1.0
24102801,ed_birds,3,test,4,assets\ed_birds\toucan_2.png,0,,176.42,0.0,1.0
24102801,ed_birds,3,test,5,assets\ed_birds\pelican_2.png,0,,178.16,0.0,1.0
24102801,ed_birds,3,test,6,assets\ed_birds\pheasant_1.png,0,,179.89,0.0,1.0
24102801,ed_birds,3,test,7,assets\ed_birds\pheasant_1.png,1,0.943,181.63,1.0,1.0
24102801,ed_birds,3,test,8,assets\ed_birds\puffin_2.png,0,,183.36,0.0,1.0
24102801,ed_birds,3,test,9,assets\ed_birds\goose_2.png,0,,185.11,0.0,1.0
24102801,ed_birds,3,test,10,assets\ed_birds\goose_2.png,1,0.888,186.84,1.0,1.0
24102801,ed_birds,3,test,11,assets\ed_birds\pigeon_2.png,0,,188.59,0.0,1.0
24102801,ed_birds,3,test,12,assets\ed_birds\pigeon_3.png,0,,190.34,0.0,1.0
24102801,ed_birds,3,test,13,assets\ed_birds\crow_2.png,0,,192.07,0.0,1.0
24102801,ed_birds,3,test,14,assets\ed_birds\goose_1.png,0,,193.8,0.0,1.0
24102801,ed_birds,3,test,15,assets\ed_birds\goose_1.png,1,0.561,195.54,1.0,1.0
24102801,ed_birds,3,test,16,assets\ed_birds\turkey_1.png,0,,197.41,0.0,1.0
24102801,ed_birds,3,test,17,assets\ed_birds\pheasant_2.png,0,,199.16,0.0,1.0
24102801,ed_birds,3,test,18,assets\ed_birds\seagull_1.png,0,,200.9,0.0,1.0
24102801,ed_birds,3,test,19,assets\ed_birds\cardinal_1.png,0,,202.64,0.0,1.0
24102801,ed_birds,3,test,20,assets\ed_birds\crow_3.png,0,,204.39,0.0,1.0
24102801,ed_birds,4,test,0,assets\ed_birds\penguin_1.png,0,,212.3,,
24102801,ed_birds,4,test,1,assets\ed_birds\swan_3.png,0,,214.03,0.0,1.0
24102801,ed_birds,4,test,2,assets\ed_birds\seagull_3.png,0,,215.77,0.0,1.0
24102801,ed_birds,4,test,3,assets\ed_birds\vulture_1.png,0,,217.5,0.0,1.0
24102801,ed_birds,4,test,4,assets\ed_birds\ostrich_1.png,0,,219.25,0.0,1.0
24102801,ed_birds,4,test,5,assets\ed_birds\turkey_3.png,0,,220.99,0.0,1.0
24102801,ed_birds,4,test,6,assets\ed_birds\flamingo_2.png,0,,222.73,0.0,1.0
24102801,ed_birds,4,test,7,assets\ed_birds\toucan_1.png,0,,224.46,0.0,1.0
24102801,ed_birds,4,test,8,assets\ed_birds\peacock_2.png,0,,226.2,0.0,1.0
24102801,ed_birds,4,test,9,assets\ed_birds\vulture_2.png,0,,227.93,0.0,1.0
24102801,ed_birds,4,test,10,assets\ed_birds\cardinal_2.png,0,,229.68,0.0,1.0
24102801,ed_birds,4,test,11,assets\ed_birds\vulture_3.png,0,,231.42,0.0,1.0
24102801,ed_birds,4,test,12,assets\ed_birds\swan_1.png,0,,233.16,0.0,1.0
24102801,ed_birds,4,test,13,assets\ed_birds\seagull_2.png,0,,234.89,0.0,1.0
24102801,ed_birds,4,test,14,assets\ed_birds\eagle_2.png,0,,236.62,0.0,1.0
24102801,ed_birds,4,test,15,assets\ed_birds\peacock_3.png,0,,238.36,0.0,1.0
24102801,ed_birds,4,test,16,assets\ed_birds\peacock_3.png,1,0.678,240.09,1.0,1.0
24102801,ed_birds,4,test,17,assets\ed_birds\eagle_3.png,0,,241.83,0.0,1.0
24102801,ed_birds,4,test,18,assets\ed_birds\eagle_3.png,1,0.618,243.57,1.0,1.0
24102801,ed_birds,4,test,19,assets\ed_birds\eagle_3.png,1,0.868,245.3,1.0,1.0
24102801,ed_birds,4,test,20,assets\ed_birds\cardinal_3.png,0,,247.04,0.0,1.0
24102801,ed_birds,5,test,0,assets\ed_birds\swan_2.png,0,,256.17,,
24102801,ed_birds,5,test,1,assets\ed_birds\pelican_1.png,0,,257.9,0.0,1.0
24102801,ed_birds,5,test,2,assets\ed_birds\hummingbird_3.png,0,,259.64,0.0,1.0
24102801,ed_birds,5,test,3,assets\ed_birds\toucan_3.png,0,,261.38,0.0,1.0
24102801,ed_birds,5,test,4,assets\ed_birds\puffin_1.png,0,,263.12,0.0,1.0
24102801,ed_birds,5,test,5,assets\ed_birds\penguin_3.png,0,,264.86,0.0,1.0
24102801,ed_birds,5,test,6,assets\ed_birds\goose_2.png,0,,266.6,0.0,1.0
24102801,ed_birds,5,test,7,assets\ed_birds\pigeon_3.png,0,,268.34,0.0,1.0
24102801,ed_birds,5,test,8,assets\ed_birds\penguin_2.png,0,,270.08,0.0,1.0
24102801,ed_birds,5,test,9,assets\ed_birds\pheasant_3.png,0,,271.83,0.0,1.0
24102801,ed_birds,5,test,10,assets\ed_birds\hummingbird_1.png,0,,273.56,0.0,1.0
24102801,ed_birds,5,test,11,assets\ed_birds\peacock_1.png,0,,275.3,0.0,1.0
24102801,ed_birds,5,test,12,assets\ed_birds\goose_1.png,0,,277.04,0.0,1.0
24102801,ed_birds,5,test,13,assets\ed_birds\crow_3.png,0,,278.77,0.0,1.0
24102801,ed_birds,5,test,14,assets\ed_birds\rooster_1.png,0,,280.51,0.0,1.0
24102801,ed_birds,5,test,15,assets\ed_birds\turkey_2.png,0,,282.25,0.0,1.0
24102801,ed_birds,5,test,16,assets\ed_birds\penguin_1.png,0,,283.98,0.0,1.0
24102801,ed_birds,5,test,17,assets\ed_birds\pigeon_2.png,0,,285.71,0.0,1.0
24102801,ed_birds,5,test,18,assets\ed_birds\toucan_2.png,0,,287.45,0.0,1.0
24102801,ed_birds,5,test,19,assets\ed_birds\duckling_1.png,0,,289.19,0.0,1.0
24102801,ed_birds,5,test,20,assets\ed_birds\puffin_2.png,1,0.943,290.92,0.0,0.0
24102801,ed_birds,6,test,0,assets\ed_birds\puffin_3.png,0,,298.75,,
24102801,ed_birds,6,test,1,assets\ed_birds\pheasant_2.png,0,,300.48,0.0,1.0
24102801,ed_birds,6,test,2,assets\ed_birds\cardinal_2.png,0,,302.23,0.0,1.0
24102801,ed_birds,6,test,3,assets\ed_birds\seagull_3.png,0,,303.97,0.0,1.0
24102801,ed_birds,6,test,4,assets\ed_birds\flamingo_1.png,0,,305.71,0.0,1.0
24102801,ed_birds,6,test,5,assets\ed_birds\pigeon_1.png,0,,307.47,0.0,1.0
24102801,ed_birds,6,test,6,assets\ed_birds\ostrich_1.png,0,,309.2,0.0,1.0
24102801,ed_birds,6,test,7,assets\ed_birds\ostrich_1.png,1,0.678,310.94,1.0,1.0
24102801,ed_birds,6,test,8,assets\ed_birds\peacock_3.png,0,,312.68,0.0,1.0
24102801,ed_birds,6,test,9,assets\ed_birds\peacock_3.png,1,0.638,314.41,1.0,1.0
24102801,ed_birds,6,test,10,assets\ed_birds\peacock_3.png,1,0.735,316.15,1.0,1.0
24102801,ed_birds,6,test,11,assets\ed_birds\toucan_1.png,0,,317.88,0.0,1.0
24102801,ed_birds,6,test,12,assets\ed_birds\rooster_3.png,0,,319.62,0.0,1.0
24102801,ed_birds,6,test,13,assets\ed_birds\swan_3.png,0,,321.35,0.0,1.0
24102801,ed_birds,6,test,14,assets\ed_birds\flamingo_2.png,0,,323.08,0.0,1.0
24102801,ed_birds,6,test,15,assets\ed_birds\hummingbird_3.png,0,,324.81,0.0,1.0
24102801,ed_birds,6,test,16,assets\ed_birds\rooster_2.png,0,,326.55,0.0,1.0
24102801,ed_birds,6,test,17,assets\ed_birds\vulture_3.png,0,,328.29,0.0,1.0
24102801,ed_birds,6,test,18,assets\ed_birds\turkey_1.png,0,,330.16,0.0,1.0
24102801,ed_birds,6,test,19,assets\ed_birds\turkey_1.png,1,0.536,332.0,1.0,1.0
24102801,ed_birds,6,test,20,assets\ed_birds\penguin_3.png,0,,333.73,0.0,1.0
24102801,ed_birds,7,test,0,assets\ed_birds\hummingbird_2.png,0,,341.51,,
24102801,ed_birds,7,test,1,assets\ed_birds\hummingbird_2.png,1,0.903,343.24,1.0,1.0
24102801,ed_birds,7,test,2,assets\ed_birds\ostrich_2.png,0,,344.97,0.0,1.0
24102801,ed_birds,7,test,3,assets\ed_birds\flamingo_3.png,0,,346.71,0.0,1.0
24102801,ed_birds,7,test,4,assets\ed_birds\flamingo_3.png,0,,348.44,1.0,0.0
24102801,ed_birds,7,test,5,assets\ed_birds\penguin_2.png,1,0.103,350.18,0.0,0.0
24102801,ed_birds,7,test,6,assets\ed_birds\swan_1.png,0,,351.91,0.0,1.0
24102801,ed_birds,7,test,7,assets\ed_birds\goose_1.png,0,,353.65,0.0,1.0
24102801,ed_birds,7,test,8,assets\ed_birds\cardinal_1.png,0,,355.38,0.0,1.0
24102801,ed_birds,7,test,9,assets\ed_birds\goose_3.png,0,,357.12,0.0,1.0
24102801,ed_birds,7,test,10,assets\ed_birds\goose_2.png,0,,358.85,0.0,1.0
24102801,ed_birds,7,test,11,assets\ed_birds\penguin_1.png,0,,360.58,0.0,1.0
24102801,ed_birds,7,test,12,assets\ed_birds\duckling_3.png,0,,362.31,0.0,1.0
24102801,ed_birds,7,test,13,assets\ed_birds\pelican_2.png,0,,364.05,0.0,1.0
24102801,ed_birds,7,test,14,assets\ed_birds\puffin_1.png,0,,365.79,0.0,1.0
24102801,ed_birds,7,test,15,assets\ed_birds\pigeon_2.png,0,,367.53,0.0,1.0
24102801,ed_birds,7,test,16,assets\ed_birds\pheasant_1.png,0,,369.26,0.0,1.0
24102801,ed_birds,7,test,17,assets\ed_birds\turkey_3.png,0,,371.0,0.0,1.0
24102801,ed_birds,7,test,18,assets\ed_birds\cardinal_2.png,0,,372.75,0.0,1.0
24102801,ed_birds,7,test,19,assets\ed_birds\pheasant_3.png,0,,374.49,0.0,1.0
24102801,ed_birds,7,test,20,assets\ed_birds\pelican_1.png,0,,376.22,0.0,1.0
24102801,ed_birds,8,test,0,assets\ed_birds\puffin_3.png,0,,383.79,,
24102801,ed_birds,8,test,1,assets\ed_birds\puffin_3.png,1,0.74,385.53,1.0,1.0
24102801,ed_birds,8,test,2,assets\ed_birds\cardinal_3.png,0,,387.26,0.0,1.0
24102801,ed_birds,8,test,3,assets\ed_birds\pheasant_2.png,0,,389.0,0.0,1.0
24102801,ed_birds,8,test,4,assets\ed_birds\pigeon_3.png,0,,390.74,0.0,1.0
24102801,ed_birds,8,test,5,assets\ed_birds\crow_1.png,0,,392.47,0.0,1.0
24102801,ed_birds,8,test,6,assets\ed_birds\duckling_2.png,0,,394.24,0.0,1.0
24102801,ed_birds,8,test,7,assets\ed_birds\eagle_2.png,0,,395.97,0.0,1.0
24102801,ed_birds,8,test,8,assets\ed_birds\ostrich_3.png,0,,397.7,0.0,1.0
24102801,ed_birds,8,test,9,assets\ed_birds\flamingo_1.png,0,,399.44,0.0,1.0
24102801,ed_birds,8,test,10,assets\ed_birds\duckling_1.png,0,,401.17,0.0,1.0
24102801,ed_birds,8,test,11,assets\ed_birds\duckling_1.png,1,0.697,402.91,1.0,1.0
24102801,ed_birds,8,test,12,assets\ed_birds\puffin_2.png,0,,404.65,0.0,1.0
24102801,ed_birds,8,test,13,assets\ed_birds\swan_3.png,0,,406.38,0.0,1.0
24102801,ed_birds,8,test,14,assets\ed_birds\peacock_3.png,0,,408.11,0.0,1.0
24102801,ed_birds,8,test,15,assets\ed_birds\ostrich_1.png,0,,409.85,0.0,1.0
24102801,ed_birds,8,test,16,assets\ed_birds\penguin_3.png,0,,411.58,0.0,1.0
24102801,ed_birds,8,test,17,assets\ed_birds\eagle_3.png,0,,413.32,0.0,1.0
24102801,ed_birds,8,test,18,assets\ed_birds\rooster_3.png,0,,415.05,0.0,1.0
24102801,ed_birds,8,test,19,assets\ed_birds\toucan_1.png,0,,416.79,0.0,1.0
24102801,ed_birds,8,test,20,assets\ed_birds\vulture_2.png,0,,418.52,0.0,1.0
24102801,ed_birds,9,test,0,assets\ed_birds\goose_1.png,0,,426.39,,
24102801,ed_birds,9,test,1,assets\ed_birds\seagull_3.png,0,,428.13,0.0,1.0
24102801,ed_birds,9,test,2,assets\ed_birds\seagull_1.png,0,,429.87,0.0,1.0
24102801,ed_birds,9,test,3,assets\ed_birds\goose_3.png,0,,431.61,0.0,1.0
24102801,ed_birds,9,test,4,assets\ed_birds\flamingo_2.png,0,,433.34,0.0,1.0
24102801,ed_birds,9,test,5,assets\ed_birds\vulture_1.png,0,,435.08,0.0,1.0
24102801,ed_birds,9,test,6,assets\ed_birds\crow_3.png,0,,436.81,0.0,1.0
24102801,ed_birds,9,test,7,assets\ed_birds\pigeon_2.png,0,,438.55,0.0,1.0
24102801,ed_birds,9,test,8,assets\ed_birds\cardinal_1.png,0,,440.28,0.0,1.0
24102801,ed_birds,9,test,9,assets\ed_birds\swan_2.png,0,,442.02,0.0,1.0
24102801,ed_birds,9,test,10,assets\ed_birds\swan_2.png,1,0.509,443.76,1.0,1.0
24102801,ed_birds,9,test,11,assets\ed_birds\turkey_2.png,0,,445.5,0.0,1.0
24102801,ed_birds,9,test,12,assets\ed_birds\turkey_1.png,1,0.689,447.37,0.0,0.0
24102801,ed_birds,9,test,13,assets\ed_birds\hummingbird_1.png,0,,449.1,0.0,1.0
24102801,ed_birds,9,test,14,assets\ed_birds\penguin_2.png,0,,450.83,0.0,1.0
24102801,ed_birds,9,test,15,assets\ed_birds\hummingbird_2.png,0,,452.56,0.0,1.0
24102801,ed_birds,9,test,16,assets\ed_birds\cardinal_2.png,0,,454.31,0.0,1.0
24102801,ed_birds,9,test,17,assets\ed_birds\eagle_1.png,0,,456.04,0.0,1.0
24102801,ed_birds,9,test,18,assets\ed_birds\pigeon_3.png,0,,457.77,0.0,1.0
24102801,ed_birds,9,test,19,assets\ed_birds\pelican_2.png,0,,459.51,0.0,1.0
24102801,ed_birds,9,test,20,assets\ed_birds\vulture_3.png,0,,461.24,0.0,1.0
24102801,ed_birds,10,test,0,assets\ed_birds\pelican_3.png,0,,468.79,,
24102801,ed_birds,10,test,1,assets\ed_birds\eagle_2.png,0,,470.53,0.0,1.0
24102801,ed_birds,10,test,2,assets\ed_birds\flamingo_1.png,0,,472.28,0.0,1.0
24102801,ed_birds,10,test,3,assets\ed_birds\ostrich_3.png,0,,474.03,0.0,1.0
24102801,ed_birds,10,test,4,assets\ed_birds\penguin_1.png,0,,475.76,0.0,1.0
24102801,ed_birds,10,test,5,assets\ed_birds\peacock_2.png,0,,477.51,0.0,1.0
24102801,ed_birds,10,test,6,assets\ed_birds\crow_2.png,0,,479.26,0.0,1.0
24102801,ed_birds,10,test,7,assets\ed_birds\puffin_1.png,0,,481.0,0.0,1.0
24102801,ed_birds,10,test,8,assets\ed_birds\toucan_3.png,0,,482.74,0.0,1.0
24102801,ed_birds,10,test,9,assets\ed_birds\toucan_3.png,1,0.57,484.47,1.0,1.0
24102801,ed_birds,10,test,10,assets\ed_birds\rooster_1.png,0,,486.21,0.0,1.0
24102801,ed_birds,10,test,11,assets\ed_birds\pelican_1.png,0,,487.95,0.0,1.0
24102801,ed_birds,10,test,12,assets\ed_birds\duckling_2.png,0,,489.69,0.0,1.0
24102801,ed_birds,10,test,13,assets\ed_birds\ostrich_2.png,0,,491.43,0.0,1.0
24102801,ed_birds,10,test,14,assets\ed_birds\toucan_2.png,0,,493.17,0.0,1.0
24102801,ed_birds,10,test,15,assets\ed_birds\rooster_2.png,0,,494.92,0.0,1.0
24102801,ed_birds,10,test,16,assets\ed_birds\pheasant_1.png,0,,496.66,0.0,1.0
24102801,ed_birds,10,test,17,assets\ed_birds\puffin_3.png,1,0.828,498.41,0.0,0.0
24102801,ed_birds,10,test,18,assets\ed_birds\flamingo_2.png,0,,500.16,0.0,1.0
24102801,ed_birds,10,test,19,assets\ed_birds\puffin_2.png,1,0.906,501.9,0.0,0.0
24102801,ed_birds,10,test,20,assets\ed_birds\seagull_1.png,0,,503.64,0.0,1.0
24102801,ed_fruits,1,test,0,assets\ed_fruits\grapefruit_2.png,0,,542.21,,
24102801,ed_fruits,1,test,1,assets\ed_fruits\pear_3.png,0,,543.96,0.0,1.0
24102801,ed_fruits,1,test,2,assets\ed_fruits\pomegranate_2.png,0,,545.79,0.0,1.0
24102801,ed_fruits,1,test,3,assets\ed_fruits\blueberry_2.png,0,,547.63,0.0,1.0
24102801,ed_fruits,1,test,4,assets\ed_fruits\blackberry_3.png,0,,549.37,0.0,1.0
24102801,ed_fruits,1,test,5,assets\ed_fruits\melon_3.png,0,,551.14,0.0,1.0
24102801,ed_fruits,1,test,6,assets\ed_fruits\lemon_3.png,0,,552.89,0.0,1.0
24102801,ed_fruits,1,test,7,assets\ed_fruits\melon_1.png,0,,554.67,0.0,1.0
24102801,ed_fruits,1,test,8,assets\ed_fruits\cantaloupe_1.png,0,,556.43,0.0,1.0
24102801,ed_fruits,1,test,9,assets\ed_fruits\watermelon_3.png,0,,558.22,0.0,1.0
24102801,ed_fruits,1,test,10,assets\ed_fruits\papaya_3.png,0,,560.0,0.0,1.0
24102801,ed_fruits,1,test,11,assets\ed_fruits\mulberry_1.png,0,,561.75,0.0,1.0
24102801,ed_fruits,1,test,12,assets\ed_fruits\mulberry_2.png,0,,563.57,0.0,1.0
24102801,ed_fruits,1,test,13,assets\ed_fruits\mulberry_2.png,1,0.575,565.35,1.0,1.0
24102801,ed_fruits,1,test,14,assets\ed_fruits\raspberry_2.png,0,,567.1,0.0,1.0
24102801,ed_fruits,1,test,15,assets\ed_fruits\lemon_2.png,0,,568.85,0.0,1.0
24102801,ed_fruits,1,test,16,assets\ed_fruits\pear_2.png,0,,570.62,0.0,1.0
24102801,ed_fruits,1,test,17,assets\ed_fruits\peach_2.png,0,,572.38,0.0,1.0
24102801,ed_fruits,1,test,18,assets\ed_fruits\peach_2.png,1,0.648,574.11,1.0,1.0
24102801,ed_fruits,1,test,19,assets\ed_fruits\mulberry_3.png,0,,575.88,0.0,1.0
24102801,ed_fruits,1,test,20,assets\ed_fruits\watermelon_2.png,0,,577.62,0.0,1.0
24102801,ed_fruits,2,test,0,assets\ed_fruits\melon_2.png,0,,585.23,,
24102801,ed_fruits,2,test,1,assets\ed_fruits\blackberry_1.png,0,,586.97,0.0,1.0
24102801,ed_fruits,2,test,2,assets\ed_fruits\kiwi_3.png,0,,588.72,0.0,1.0
24102801,ed_fruits,2,test,3,assets\ed_fruits\blackberry_2.png,0,,590.47,0.0,1.0
24102801,ed_fruits,2,test,4,assets\ed_fruits\papaya_2.png,0,,592.22,0.0,1.0
24102801,ed_fruits,2,test,5,assets\ed_fruits\papaya_2.png,1,0.845,593.96,1.0,1.0
24102801,ed_fruits,2,test,6,assets\ed_fruits\pomegranate_1.png,0,,595.72,0.0,1.0
24102801,ed_fruits,2,test,7,assets\ed_fruits\pear_1.png,0,,597.48,0.0,1.0
24102801,ed_fruits,2,test,8,assets\ed_fruits\grapefruit_1.png,0,,599.28,0.0,1.0
24102801,ed_fruits,2,test,9,assets\ed_fruits\mango_3.png,0,,601.07,0.0,1.0
24102801,ed_fruits,2,test,10,assets\ed_fruits\lemon_1.png,0,,602.82,0.0,1.0
24102801,ed_fruits,2,test,11,assets\ed_fruits\blueberry_3.png,0,,604.57,0.0,1.0
24102801,ed_fruits,2,test,12,assets\ed_fruits\peach_1.png,0,,606.31,0.0,1.0
24102801,ed_fruits,2,test,13,assets\ed_fruits\kiwi_2.png,0,,608.06,0.0,1.0
24102801,ed_fruits,2,test,14,assets\ed_fruits\cranberry_2.png,0,,609.82,0.0,1.0
24102801,ed_fruits,2,test,15,assets\ed_fruits\grapefruit_3.png,0,,611.65,0.0,1.0
24102801,ed_fruits,2,test,16,assets\ed_fruits\prune_2.png,0,,613.94,0.0,1.0
24102801,ed_fruits,2,test,17,assets\ed_fruits\prune_3.png,0,,615.73,0.0,1.0
24102801,ed_fruits,2,test,18,assets\ed_fruits\pomegranate_3.png,0,,617.47,0.0,1.0
24102801,ed_fruits,2,test,19,assets\ed_fruits\pineapple_2.png,0,,619.42,0.0,1.0
24102801,ed_fruits,2,test,20,assets\ed_fruits\prune_1.png,1,0.738,621.16,0.0,0.0
24102801,ed_fruits,3,test,0,assets\ed_fruits\star_fruit_3.png,0,,629.87,,
24102801,ed_fruits,3,test,1,assets\ed_fruits\cantaloupe_1.png,0,,631.61,0.0,1.0
24102801,ed_fruits,3,test,2,assets\ed_fruits\melon_3.png,0,,633.36,0.0,1.0
24102801,ed_fruits,3,test,3,assets\ed_fruits\apple_3.png,0,,635.11,0.0,1.0
24102801,ed_fruits,3,test,4,assets\ed_fruits\mulberry_1.png,0,,636.85,0.0,1.0
24102801,ed_fruits,3,test,5,assets\ed_fruits\star_fruit_1.png,0,,638.6,0.0,1.0
24102801,ed_fruits,3,test,6,assets\ed_fruits\papaya_3.png,0,,640.35,0.0,1.0
24102801,ed_fruits,3,test,7,assets\ed_fruits\apple_2.png,0,,642.3,0.0,1.0
24102801,ed_fruits,3,test,8,assets\ed_fruits\watermelon_1.png,0,,644.07,0.0,1.0
24102801,ed_fruits,3,test,9,assets\ed_fruits\mango_2.png,0,,646.19,0.0,1.0
24102801,ed_fruits,3,test,10,assets\ed_fruits\mango_2.png,1,0.639,648.2,1.0,1.0
24102801,ed_fruits,3,test,11,assets\ed_fruits\lemon_2.png,0,,649.94,0.0,1.0
24102801,ed_fruits,3,test,12,assets\ed_fruits\cranberry_3.png,0,,651.74,0.0,1.0
24102801,ed_fruits,3,test,13,assets\ed_fruits\pear_2.png,0,,653.47,0.0,1.0
24102801,ed_fruits,3,test,14,assets\ed_fruits\watermelon_3.png,0,,655.24,0.0,1.0
24102801,ed_fruits,3,test,15,assets\ed_fruits\watermelon_3.png,1,0.706,657.01,1.0,1.0
24102801,ed_fruits,3,test,16,assets\ed_fruits\watermelon_2.png,0,,658.75,0.0,1.0
24102801,ed_fruits,3,test,17,assets\ed_fruits\melon_1.png,0,,660.49,0.0,1.0
24102801,ed_fruits,3,test,18,assets\ed_fruits\melon_1.png,1,0.47,662.23,1.0,1.0
24102801,ed_fruits,3,test,19,assets\ed_fruits\mango_1.png,0,,664.03,0.0,1.0
24102801,ed_fruits,3,test,20,assets\ed_fruits\raspberry_1.png,0,,665.78,0.0,1.0
24102801,ed_fruits,4,test,0,assets\ed_fruits\mulberry_2.png,0,,673.49,,
24102801,ed_fruits,4,test,1,assets\ed_fruits\raspberry_3.png,0,,675.25,0.0,1.0
24102801,ed_fruits,4,test,2,assets\ed_fruits\kiwi_3.png,0,,676.99,0.0,1.0
24102801,ed_fruits,4,test,3,assets\ed_fruits\cantaloupe_3.png,0,,678.74,0.0,1.0
24102801,ed_fruits,4,test,4,assets\ed_fruits\apple_1.png,0,,680.49,0.0,1.0
24102801,ed_fruits,4,test,5,assets\ed_fruits\cantaloupe_2.png,0,,682.25,0.0,1.0
24102801,ed_fruits,4,test,6,assets\ed_fruits\blueberry_2.png,0,,684.07,0.0,1.0
24102801,ed_fruits,4,test,7,assets\ed_fruits\cranberry_1.png,0,,685.84,0.0,1.0
24102801,ed_fruits,4,test,8,assets\ed_fruits\cranberry_1.png,0,,687.61,1.0,0.0
24102801,ed_fruits,4,test,9,assets\ed_fruits\blackberry_2.png,0,,689.34,0.0,1.0
24102801,ed_fruits,4,test,10,assets\ed_fruits\lemon_1.png,0,,691.09,0.0,1.0
24102801,ed_fruits,4,test,11,assets\ed_fruits\kiwi_1.png,0,,692.85,0.0,1.0
24102801,ed_fruits,4,test,12,assets\ed_fruits\lemon_3.png,0,,694.59,0.0,1.0
24102801,ed_fruits,4,test,13,assets\ed_fruits\prune_2.png,0,,696.84,0.0,1.0
24102801,ed_fruits,4,test,14,assets\ed_fruits\star_fruit_2.png,0,,698.59,0.0,1.0
24102801,ed_fruits,4,test,15,assets\ed_fruits\star_fruit_2.png,1,0.619,700.33,1.0,1.0
24102801,ed_fruits,4,test,16,assets\ed_fruits\blueberry_1.png,0,,702.12,0.0,1.0
24102801,ed_fruits,4,test,17,assets\ed_fruits\mulberry_3.png,0,,703.9,0.0,1.0
24102801,ed_fruits,4,test,18,assets\ed_fruits\mango_3.png,0,,705.68,0.0,1.0
24102801,ed_fruits,4,test,19,assets\ed_fruits\grapefruit_3.png,0,,707.49,0.0,1.0
24102801,ed_fruits,4,test,20,assets\ed_fruits\melon_2.png,0,,709.24,0.0,1.0
24102801,ed_fruits,5,test,0,assets\ed_fruits\prune_1.png,0,,716.85,,
24102801,ed_fruits,5,test,1,assets\ed_fruits\papaya_3.png,0,,718.6,0.0,1.0
24102801,ed_fruits,5,test,2,assets\ed_fruits\peach_2.png,0,,720.33,0.0,1.0
24102801,ed_fruits,5,test,3,assets\ed_fruits\pineapple_3.png,0,,722.3,0.0,1.0
24102801,ed_fruits,5,test,4,assets\ed_fruits\pineapple_3.png,1,0.623,724.2,1.0,1.0
24102801,ed_fruits,5,test,5,assets\ed_fruits\pineapple_1.png,0,,726.09,0.0,1.0
24102801,ed_fruits,5,test,6,assets\ed_fruits\pear_3.png,0,,727.82,0.0,1.0
24102801,ed_fruits,5,test,7,assets\ed_fruits\pomegranate_2.png,0,,729.63,0.0,1.0
24102801,ed_fruits,5,test,8,assets\ed_fruits\pomegranate_3.png,1,0.761,731.37,0.0,0.0
24102801,ed_fruits,5,test,9,assets\ed_fruits\mulberry_1.png,0,,733.1,0.0,1.0
24102801,ed_fruits,5,test,10,assets\ed_fruits\mulberry_1.png,1,0.469,734.84,1.0,1.0
24102801,ed_fruits,5,test,11,assets\ed_fruits\blackberry_3.png,0,,736.57,0.0,1.0
24102801,ed_fruits,5,test,12,assets\ed_fruits\blackberry_1.png,0,,738.3,0.0,1.0
24102801,ed_fruits,5,test,13,assets\ed_fruits\blackberry_1.png,1,0.69,740.03,1.0,1.0
24102801,ed_fruits,5,test,14,assets\ed_fruits\apple_3.png,0,,741.76,0.0,1.0
24102801,ed_fruits,5,test,15,assets\ed_fruits\mango_2.png,0,,743.9,0.0,1.0
24102801,ed_fruits,5,test,16,assets\ed_fruits\prune_3.png,0,,745.69,0.0,1.0
24102801,ed_fruits,5,test,17,assets\ed_fruits\watermelon_2.png,0,,747.42,0.0,1.0
24102801,ed_fruits,5,test,18,assets\ed_fruits\mulberry_2.png,0,,749.22,0.0,1.0
24102801,ed_fruits,5,test,19,assets\ed_fruits\star_fruit_3.png,0,,750.95,0.0,1.0
24102801,ed_fruits,5,test,20,assets\ed_fruits\cantaloupe_2.png,0,,752.69,0.0,1.0
24102801,ed_fruits,6,test,0,assets\ed_fruits\peach_3.png,0,,760.21,,
24102801,ed_fruits,6,test,1,assets\ed_fruits\peach_1.png,0,,761.95,0.0,1.0
24102801,ed_fruits,6,test,2,assets\ed_fruits\cranberry_2.png,0,,763.68,0.0,1.0
24102801,ed_fruits,6,test,3,assets\ed_fruits\melon_3.png,0,,765.44,0.0,1.0
24102801,ed_fruits,6,test,4,assets\ed_fruits\mango_1.png,0,,767.21,0.0,1.0
24102801,ed_fruits,6,test,5,assets\ed_fruits\pear_1.png,0,,768.95,0.0,1.0
24102801,ed_fruits,6,test,6,assets\ed_fruits\watermelon_3.png,0,,770.72,0.0,1.0
24102801,ed_fruits,6,test,7,assets\ed_fruits\blackberry_2.png,0,,772.46,0.0,1.0
24102801,ed_fruits,6,test,8,assets\ed_fruits\apple_1.png,0,,774.2,0.0,1.0
24102801,ed_fruits,6,test,9,assets\ed_fruits\papaya_2.png,0,,775.93,0.0,1.0
24102801,ed_fruits,6,test,10,assets\ed_fruits\melon_1.png,0,,777.68,0.0,1.0
24102801,ed_fruits,6,test,11,assets\ed_fruits\pear_2.png,0,,779.41,0.0,1.0
24102801,ed_fruits,6,test,12,assets\ed_fruits\pear_2.png,1,0.46,781.15,1.0,1.0
24102801,ed_fruits,6,test,13,assets\ed_fruits\cantaloupe_1.png,0,,782.89,0.0,1.0
24102801,ed_fruits,6,test,14,assets\ed_fruits\papaya_1.png,0,,784.63,0.0,1.0
24102801,ed_fruits,6,test,15,assets\ed_fruits\grapefruit_1.png,0,,786.41,0.0,1.0
24102801,ed_fruits,6,test,16,assets\ed_fruits\grapefruit_1.png,1,0.651,788.18,1.0,1.0
24102801,ed_fruits,6,test,17,assets\ed_fruits\star_fruit_2.png,0,,789.92,0.0,1.0
24102801,ed_fruits,6,test,18,assets\ed_fruits\lemon_1.png,0,,791.66,0.0,1.0
24102801,ed_fruits,6,test,19,assets\ed_fruits\lemon_1.png,1,0.623,793.4,1.0,1.0
24102801,ed_fruits,6,test,20,assets\ed_fruits\cantaloupe_3.png,0,,795.14,0.0,1.0
24102801,ed_fruits,7,test,0,assets\ed_fruits\kiwi_3.png,0,,802.73,,
24102801,ed_fruits,7,test,1,assets\ed_fruits\kiwi_3.png,1,0.653,804.47,1.0,1.0
24102801,ed_fruits,7,test,2,assets\ed_fruits\blueberry_3.png,0,,806.2,0.0,1.0
24102801,ed_fruits,7,test,3,assets\ed_fruits\mulberry_3.png,0,,807.97,0.0,1.0
24102801,ed_fruits,7,test,4,assets\ed_fruits\pomegranate_1.png,0,,809.71,0.0,1.0
24102801,ed_fruits,7,test,5,assets\ed_fruits\blueberry_2.png,0,,811.53,0.0,1.0
24102801,ed_fruits,7,test,6,assets\ed_fruits\prune_1.png,0,,813.26,0.0,1.0
24102801,ed_fruits,7,test,7,assets\ed_fruits\blackberry_1.png,0,,814.99,0.0,1.0
24102801,ed_fruits,7,test,8,assets\ed_fruits\mulberry_1.png,0,,816.72,0.0,1.0
24102801,ed_fruits,7,test,9,assets\ed_fruits\prune_3.png,0,,818.51,0.0,1.0
24102801,ed_fruits,7,test,10,assets\ed_fruits\pomegranate_2.png,0,,820.32,0.0,1.0
24102801,ed_fruits,7,test,11,assets\ed_fruits\lemon_3.png,0,,822.06,0.0,1.0
24102801,ed_fruits,7,test,12,assets\ed_fruits\cranberry_1.png,0,,823.83,0.0,1.0
24102801,ed_fruits,7,test,13,assets\ed_fruits\apple_3.png,0,,825.57,0.0,1.0
24102801,ed_fruits,7,test,14,assets\ed_fruits\papaya_3.png,0,,827.32,0.0,1.0
24102801,ed_fruits,7,test,15,assets\ed_fruits\raspberry_2.png,0,,829.05,0.0,1.0
24102801,ed_fruits,7,test,16,assets\ed_fruits\peach_1.png,0,,830.78,0.0,1.0
24102801,ed_fruits,7,test,17,assets\ed_fruits\blueberry_1.png,0,,832.55,0.0,1.0
24102801,ed_fruits,7,test,18,assets\ed_fruits\kiwi_1.png,0,,834.28,0.0,1.0
24102801,ed_fruits,7,test,19,assets\ed_fruits\kiwi_2.png,0,,836.02,0.0,1.0
24102801,ed_fruits,7,test,20,assets\ed_fruits\peach_2.png,1,0.103,837.76,0.0,0.0
24102801,ed_fruits,8,test,0,assets\ed_fruits\cantaloupe_2.png,0,,845.28,,
24102801,ed_fruits,8,test,1,assets\ed_fruits\pomegranate_3.png,0,,847.01,0.0,1.0
24102801,ed_fruits,8,test,2,assets\ed_fruits\blackberry_3.png,0,,848.74,0.0,1.0
24102801,ed_fruits,8,test,3,assets\ed_fruits\grapefruit_2.png,0,,850.53,0.0,1.0
24102801,ed_fruits,8,test,4,assets\ed_fruits\grapefruit_2.png,1,0.638,852.3,1.0,1.0
24102801,ed_fruits,8,test,5,assets\ed_fruits\cranberry_3.png,0,,854.07,0.0,1.0
24102801,ed_fruits,8,test,6,assets\ed_fruits\cranberry_3.png,1,0.703,855.84,1.0,1.0
24102801,ed_fruits,8,test,7,assets\ed_fruits\apple_2.png,0,,857.75,0.0,1.0
24102801,ed_fruits,8,test,8,assets\ed_fruits\melon_3.png,0,,859.51,0.0,1.0
24102801,ed_fruits,8,test,9,assets\ed_fruits\papaya_1.png,0,,861.24,0.0,1.0
24102801,ed_fruits,8,test,10,assets\ed_fruits\peach_3.png,0,,862.97,0.0,1.0
24102801,ed_fruits,8,test,11,assets\ed_fruits\watermelon_1.png,0,,864.72,0.0,1.0
24102801,ed_fruits,8,test,12,assets\ed_fruits\prune_2.png,0,,866.98,0.0,1.0
24102801,ed_fruits,8,test,13,assets\ed_fruits\star_fruit_1.png,0,,868.73,0.0,1.0
24102801,ed_fruits,8,test,14,assets\ed_fruits\pineapple_1.png,0,,870.57,0.0,1.0
24102801,ed_fruits,8,test,15,assets\ed_fruits\pineapple_1.png,1,0.624,872.39,1.0,1.0
24102801,ed_fruits,8,test,16,assets\ed_fruits\pineapple_3.png,0,,874.35,0.0,1.0
24102801,ed_fruits,8,test,17,assets\ed_fruits\pear_2.png,0,,876.09,0.0,1.0
24102801,ed_fruits,8,test,18,assets\ed_fruits\pear_2.png,0,,877.83,1.0,0.0
24102801,ed_fruits,8,test,19,assets\ed_fruits\cantaloupe_3.png,1,0.104,879.57,0.0,0.0
24102801,ed_fruits,8,test,20,assets\ed_fruits\kiwi_3.png,0,,881.31,0.0,1.0
24102801,ed_fruits,9,test,0,assets\ed_fruits\blackberry_1.png,0,,888.87,,
24102801,ed_fruits,9,test,1,assets\ed_fruits\mango_1.png,0,,890.65,0.0,1.0
24102801,ed_fruits,9,test,2,assets\ed_fruits\mango_3.png,0,,892.4,0.0,1.0
24102801,ed_fruits,9,test,3,assets\ed_fruits\mulberry_1.png,0,,894.13,0.0,1.0
24102801,ed_fruits,9,test,4,assets\ed_fruits\star_fruit_3.png,0,,895.87,0.0,1.0
24102801,ed_fruits,9,test,5,assets\ed_fruits\raspberry_3.png,0,,897.61,0.0,1.0
24102801,ed_fruits,9,test,6,assets\ed_fruits\mulberry_3.png,0,,899.36,0.0,1.0
24102801,ed_fruits,9,test,7,assets\ed_fruits\apple_3.png,1,0.105,901.1,0.0,0.0
24102801,ed_fruits,9,test,8,assets\ed_fruits\blueberry_2.png,0,,902.91,0.0,1.0
24102801,ed_fruits,9,test,9,assets\ed_fruits\pomegranate_1.png,0,,904.65,0.0,1.0
24102801,ed_fruits,9,test,10,assets\ed_fruits\blueberry_3.png,0,,906.38,0.0,1.0
24102801,ed_fruits,9,test,11,assets\ed_fruits\melon_1.png,0,,908.13,0.0,1.0
24102801,ed_fruits,9,test,12,assets\ed_fruits\mulberry_2.png,0,,909.93,0.0,1.0
24102801,ed_fruits,9,test,13,assets\ed_fruits\raspberry_2.png,0,,911.66,0.0,1.0
24102801,ed_fruits,9,test,14,assets\ed_fruits\lemon_2.png,0,,913.4,0.0,1.0
24102801,ed_fruits,9,test,15,assets\ed_fruits\cantaloupe_2.png,0,,915.14,0.0,1.0
24102801,ed_fruits,9,test,16,assets\ed_fruits\peach_1.png,0,,916.87,0.0,1.0
24102801,ed_fruits,9,test,17,assets\ed_fruits\lemon_3.png,0,,918.6,0.0,1.0
24102801,ed_fruits,9,test,18,assets\ed_fruits\blackberry_3.png,0,,920.33,0.0,1.0
24102801,ed_fruits,9,test,19,assets\ed_fruits\blackberry_3.png,1,0.554,922.06,1.0,1.0
24102801,ed_fruits,9,test,20,assets\ed_fruits\pear_1.png,0,,923.79,0.0,1.0
24102801,ed_fruits,10,test,0,assets\ed_fruits\pomegranate_3.png,0,,931.32,,
24102801,ed_fruits,10,test,1,assets\ed_fruits\mango_2.png,0,,933.42,0.0,1.0
24102801,ed_fruits,10,test,2,assets\ed_fruits\cranberry_2.png,0,,935.15,0.0,1.0
24102801,ed_fruits,10,test,3,assets\ed_fruits\kiwi_1.png,0,,936.88,0.0,1.0
24102801,ed_fruits,10,test,4,assets\ed_fruits\peach_3.png,0,,938.61,0.0,1.0
24102801,ed_fruits,10,test,5,assets\ed_fruits\watermelon_3.png,0,,940.39,0.0,1.0
24102801,ed_fruits,10,test,6,assets\ed_fruits\cranberry_1.png,0,,942.16,0.0,1.0
24102801,ed_fruits,10,test,7,assets\ed_fruits\lemon_1.png,0,,943.9,0.0,1.0
24102801,ed_fruits,10,test,8,assets\ed_fruits\peach_2.png,0,,945.63,0.0,1.0
24102801,ed_fruits,10,test,9,assets\ed_fruits\melon_2.png,0,,947.39,0.0,1.0
24102801,ed_fruits,10,test,10,assets\ed_fruits\melon_3.png,0,,949.15,0.0,1.0
24102801,ed_fruits,10,test,11,assets\ed_fruits\melon_3.png,1,0.652,950.9,1.0,1.0
24102801,ed_fruits,10,test,12,assets\ed_fruits\blackberry_1.png,0,,952.63,0.0,1.0
24102801,ed_fruits,10,test,13,assets\ed_fruits\blackberry_1.png,1,0.65,954.36,1.0,1.0
24102801,ed_fruits,10,test,14,assets\ed_fruits\pomegranate_2.png,0,,956.18,0.0,1.0
24102801,ed_fruits,10,test,15,assets\ed_fruits\pineapple_2.png,1,0.105,958.1,0.0,0.0
24102801,ed_fruits,10,test,16,assets\ed_fruits\mango_1.png,0,,959.87,0.0,1.0
24102801,ed_fruits,10,test,17,assets\ed_fruits\star_fruit_1.png,0,,961.61,0.0,1.0
24102801,ed_fruits,10,test,18,assets\ed_fruits\kiwi_2.png,0,,963.35,0.0,1.0
24102801,ed_fruits,10,test,19,assets\ed_fruits\star_fruit_3.png,0,,965.09,0.0,1.0
24102801,ed_fruits,10,test,20,assets\ed_fruits\kiwi_3.png,0,,966.82,0.0,1.0
24102801,ed_desserts,1,test,0,assets\ed_desserts\cake_2.png,0,,1215.81,,
24102801,ed_desserts,1,test,1,assets\ed_desserts\whipped_cream_1.png,0,,1217.56,0.0,1.0
24102801,ed_desserts,1,test,2,assets\ed_desserts\pudding_1.png,0,,1219.3,0.0,1.0
24102801,ed_desserts,1,test,3,assets\ed_desserts\milkshake_1.png,0,,1221.05,0.0,1.0
24102801,ed_desserts,1,test,4,assets\ed_desserts\popsicle_3.png,0,,1222.79,0.0,1.0
24102801,ed_desserts,1,test,5,assets\ed_desserts\parfait_3.png,0,,1224.53,0.0,1.0
24102801,ed_desserts,1,test,6,assets\ed_desserts\fudge_3.png,0,,1226.28,0.0,1.0
24102801,ed_desserts,1,test,7,assets\ed_desserts\sundae_1.png,0,,1228.04,0.0,1.0
24102801,ed_desserts,1,test,8,assets\ed_desserts\brownie_1.png,0,,1229.94,0.0,1.0
24102801,ed_desserts,1,test,9,assets\ed_desserts\chocolate_3.png,0,,1231.7,0.0,1.0
24102801,ed_desserts,1,test,10,assets\ed_desserts\cupcake_1.png,0,,1233.49,0.0,1.0
24102801,ed_desserts,1,test,11,assets\ed_desserts\cupcake_1.png,1,0.599,1235.25,1.0,1.0
24102801,ed_desserts,1,test,12,assets\ed_desserts\mousse_3.png,0,,1237.01,0.0,1.0
24102801,ed_desserts,1,test,13,assets\ed_desserts\mousse_3.png,1,0.738,1238.74,1.0,1.0
24102801,ed_desserts,1,test,14,assets\ed_desserts\wedding_cake_1.png,0,,1240.49,0.0,1.0
24102801,ed_desserts,1,test,15,assets\ed_desserts\cake_1.png,0,,1242.23,0.0,1.0
24102801,ed_desserts,1,test,16,assets\ed_desserts\fudge_1.png,0,,1243.97,0.0,1.0
24102801,ed_desserts,1,test,17,assets\ed_desserts\sorbet_1.png,0,,1245.71,0.0,1.0
24102801,ed_desserts,1,test,18,assets\ed_desserts\pudding_3.png,0,,1247.46,0.0,1.0
24102801,ed_desserts,1,test,19,assets\ed_desserts\pudding_3.png,1,0.749,1249.2,1.0,1.0
24102801,ed_desserts,1,test,20,assets\ed_desserts\tiramisu_2.png,0,,1250.94,0.0,1.0
24102801,ed_desserts,2,test,0,assets\ed_desserts\brownie_2.png,0,,1258.59,,
24102801,ed_desserts,2,test,1,assets\ed_desserts\cheesecake_3.png,0,,1260.35,0.0,1.0
24102801,ed_desserts,2,test,2,assets\ed_desserts\popsicle_1.png,0,,1262.1,0.0,1.0
24102801,ed_desserts,2,test,3,assets\ed_desserts\fruitcake_2.png,0,,1263.84,0.0,1.0
24102801,ed_desserts,2,test,4,assets\ed_desserts\banana_split_1.png,0,,1265.58,0.0,1.0
24102801,ed_desserts,2,test,5,assets\ed_desserts\milkshake_2.png,0,,1267.32,0.0,1.0
24102801,ed_desserts,2,test,6,assets\ed_desserts\milkshake_2.png,1,0.786,1269.06,1.0,1.0
24102801,ed_desserts,2,test,7,assets\ed_desserts\cupcake_3.png,0,,1271.08,0.0,1.0
24102801,ed_desserts,2,test,8,assets\ed_desserts\sorbet_3.png,0,,1272.83,0.0,1.0
24102801,ed_desserts,2,test,9,assets\ed_desserts\sundae_2.png,0,,1274.59,0.0,1.0
24102801,ed_desserts,2,test,10,assets\ed_desserts\brownie_3.png,0,,1276.36,0.0,1.0
24102801,ed_desserts,2,test,11,assets\ed_desserts\brownie_3.png,1,0.684,1278.11,1.0,1.0
24102801,ed_desserts,2,test,12,assets\ed_desserts\parfait_1.png,0,,1279.86,0.0,1.0
24102801,ed_desserts,2,test,13,assets\ed_desserts\whipped_cream_3.png,0,,1281.62,0.0,1.0
24102801,ed_desserts,2,test,14,assets\ed_desserts\fudge_2.png,0,,1283.37,0.0,1.0
24102801,ed_desserts,2,test,15,assets\ed_desserts\milkshake_3.png,0,,1285.11,0.0,1.0
24102801,ed_desserts,2,test,16,assets\ed_desserts\banana_split_3.png,0,,1286.87,0.0,1.0
24102801,ed_desserts,2,test,17,assets\ed_desserts\donut_3.png,0,,1288.61,0.0,1.0
24102801,ed_desserts,2,test,18,assets\ed_desserts\cake_3.png,0,,1290.37,0.0,1.0
24102801,ed_desserts,2,test,19,assets\ed_desserts\donut_2.png,0,,1292.12,0.0,1.0
24102801,ed_desserts,2,test,20,assets\ed_desserts\whipped_cream_1.png,0,,1293.85,0.0,1.0
24102801,ed_desserts,3,test,0,assets\ed_desserts\chocolate_1.png,0,,1301.47,,
24102801,ed_desserts,3,test,1,assets\ed_desserts\mousse_1.png,0,,1303.23,0.0,1.0
24102801,ed_desserts,3,test,2,assets\ed_desserts\popsicle_2.png,0,,1304.97,0.0,1.0
24102801,ed_desserts,3,test,3,assets\ed_desserts\popsicle_2.png,1,0.972,1306.7,1.0,1.0
24102801,ed_desserts,3,test,4,assets\ed_desserts\pudding_2.png,0,,1308.48,0.0,1.0
24102801,ed_desserts,3,test,5,assets\ed_desserts\sorbet_2.png,0,,1310.26,0.0,1.0
24102801,ed_desserts,3,test,6,assets\ed_desserts\fruitcake_3.png,0,,1312.01,0.0,1.0
24102801,ed_desserts,3,test,7,assets\ed_desserts\mousse_2.png,0,,1313.75,0.0,1.0
24102801,ed_desserts,3,test,8,assets\ed_desserts\flan_1.png,0,,1315.5,0.0,1.0
24102801,ed_desserts,3,test,9,assets\ed_desserts\fudge_1.png,0,,1317.23,0.0,1.0
24102801,ed_desserts,3,test,10,assets\ed_desserts\tiramisu_3.png,0,,1319.2,0.0,1.0
24102801,ed_desserts,3,test,11,assets\ed_desserts\pudding_3.png,0,,1320.94,0.0,1.0
24102801,ed_desserts,3,test,12,assets\ed_desserts\parfait_2.png,0,,1322.68,0.0,1.0
24102801,ed_desserts,3,test,13,assets\ed_desserts\cake_2.png,0,,1324.42,0.0,1.0
24102801,ed_desserts,3,test,14,assets\ed_desserts\flan_3.png,0,,1326.17,0.0,1.0
24102801,ed_desserts,3,test,15,assets\ed_desserts\popsicle_1.png,0,,1327.9,0.0,1.0
24102801,ed_desserts,3,test,16,assets\ed_desserts\popsicle_3.png,0,,1329.63,0.0,1.0
24102801,ed_desserts,3,test,17,assets\ed_desserts\cheesecake_3.png,0,,1331.37,0.0,1.0
24102801,ed_desserts,3,test,18,assets\ed_desserts\pudding_1.png,0,,1333.11,0.0,1.0
24102801,ed_desserts,3,test,19,assets\ed_desserts\cheesecake_2.png,0,,1334.87,0.0,1.0
24102801,ed_desserts,3,test,20,assets\ed_desserts\banana_split_2.png,0,,1336.62,0.0,1.0
24102801,ed_desserts,4,test,0,assets\ed_desserts\sundae_3.png,0,,1344.13,,
24102801,ed_desserts,4,test,1,assets\ed_desserts\cake_1.png,0,,1345.86,0.0,1.0
24102801,ed_desserts,4,test,2,assets\ed_desserts\donut_1.png,0,,1347.8,0.0,1.0
24102801,ed_desserts,4,test,3,assets\ed_desserts\flan_2.png,0,,1349.55,0.0,1.0
24102801,ed_desserts,4,test,4,assets\ed_desserts\chocolate_2.png,0,,1351.42,0.0,1.0
24102801,ed_desserts,4,test,5,assets\ed_desserts\cheesecake_1.png,0,,1353.18,0.0,1.0
24102801,ed_desserts,4,test,6,assets\ed_desserts\brownie_1.png,0,,1355.07,0.0,1.0
24102801,ed_desserts,4,test,7,assets\ed_desserts\cupcake_2.png,0,,1357.1,0.0,1.0
24102801,ed_desserts,4,test,8,assets\ed_desserts\cupcake_2.png,1,0.726,1359.03,1.0,1.0
24102801,ed_desserts,4,test,9,assets\ed_desserts\sorbet_1.png,0,,1360.77,0.0,1.0
24102801,ed_desserts,4,test,10,assets\ed_desserts\sorbet_1.png,1,0.797,1362.51,1.0,1.0
24102801,ed_desserts,4,test,11,assets\ed_desserts\tiramisu_1.png,0,,1364.25,0.0,1.0
24102801,ed_desserts,4,test,12,assets\ed_desserts\whipped_cream_2.png,0,,1366.01,0.0,1.0
24102801,ed_desserts,4,test,13,assets\ed_desserts\fudge_3.png,0,,1367.75,0.0,1.0
24102801,ed_desserts,4,test,14,assets\ed_desserts\fudge_3.png,1,0.641,1369.48,1.0,1.0
24102801,ed_desserts,4,test,15,assets\ed_desserts\fruitcake_2.png,0,,1371.21,0.0,1.0
24102801,ed_desserts,4,test,16,assets\ed_desserts\fudge_2.png,0,,1372.96,0.0,1.0
24102801,ed_desserts,4,test,17,assets\ed_desserts\fudge_2.png,1,0.665,1374.7,1.0,1.0
24102801,ed_desserts,4,test,18,assets\ed_desserts\mousse_3.png,0,,1376.44,0.0,1.0
24102801,ed_desserts,4,test,19,assets\ed_desserts\donut_3.png,0,,1378.18,0.0,1.0
24102801,ed_desserts,4,test,20,assets\ed_desserts\chocolate_3.png,0,,1379.93,0.0,1.0
24102801,ed_desserts,5,test,0,assets\ed_desserts\wedding_cake_1.png,0,,1387.62,,
24102801,ed_desserts,5,test,1,assets\ed_desserts\banana_split_1.png,0,,1389.38,0.0,1.0
24102801,ed_desserts,5,test,2,assets\ed_desserts\flan_1.png,0,,1391.12,0.0,1.0
24102801,ed_desserts,5,test,3,assets\ed_desserts\sundae_2.png,0,,1392.86,0.0,1.0
24102801,ed_desserts,5,test,4,assets\ed_desserts\sundae_1.png,0,,1394.61,0.0,1.0
24102801,ed_desserts,5,test,5,assets\ed_desserts\pudding_3.png,0,,1396.35,0.0,1.0
24102801,ed_desserts,5,test,6,assets\ed_desserts\banana_split_3.png,0,,1398.1,0.0,1.0
24102801,ed_desserts,5,test,7,assets\ed_desserts\banana_split_3.png,1,0.697,1399.84,1.0,1.0
24102801,ed_desserts,5,test,8,assets\ed_desserts\popsicle_2.png,0,,1401.58,0.0,1.0
24102801,ed_desserts,5,test,9,assets\ed_desserts\wedding_cake_2.png,0,,1403.33,0.0,1.0
24102801,ed_desserts,5,test,10,assets\ed_desserts\popsicle_3.png,0,,1405.06,0.0,1.0
24102801,ed_desserts,5,test,11,assets\ed_desserts\milkshake_1.png,0,,1406.81,0.0,1.0
24102801,ed_desserts,5,test,12,assets\ed_desserts\cupcake_3.png,0,,1408.81,0.0,1.0
24102801,ed_desserts,5,test,13,assets\ed_desserts\popsicle_1.png,0,,1410.55,0.0,1.0
24102801,ed_desserts,5,test,14,assets\ed_desserts\milkshake_3.png,0,,1412.29,0.0,1.0
24102801,ed_desserts,5,test,15,assets\ed_desserts\brownie_3.png,0,,1414.04,0.0,1.0
24102801,ed_desserts,5,test,16,assets\ed_desserts\milkshake_2.png,0,,1415.78,0.0,1.0
24102801,ed_desserts,5,test,17,assets\ed_desserts\parfait_3.png,0,,1417.52,0.0,1.0
24102801,ed_desserts,5,test,18,assets\ed_desserts\flan_3.png,0,,1419.27,0.0,1.0
24102801,ed_desserts,5,test,19,assets\ed_desserts\fudge_1.png,0,,1421.0,0.0,1.0
24102801,ed_desserts,5,test,20,assets\ed_desserts\tiramisu_2.png,0,,1422.74,0.0,1.0
24102801,ed_desserts,6,test,0,assets\ed_desserts\chocolate_2.png,0,,1430.39,,
24102801,ed_desserts,6,test,1,assets\ed_desserts\donut_1.png,0,,1432.32,0.0,1.0
24102801,ed_desserts,6,test,2,assets\ed_desserts\cheesecake_3.png,0,,1434.07,0.0,1.0
24102801,ed_desserts,6,test,3,assets\ed_desserts\cake_3.png,0,,1435.81,0.0,1.0
24102801,ed_desserts,6,test,4,assets\ed_desserts\banana_split_2.png,0,,1437.55,0.0,1.0
24102801,ed_desserts,6,test,5,assets\ed_desserts\cupcake_2.png,0,,1439.57,0.0,1.0
24102801,ed_desserts,6,test,6,assets\ed_desserts\cupcake_2.png,1,0.419,1441.51,1.0,1.0
24102801,ed_desserts,6,test,7,assets\ed_desserts\fudge_3.png,0,,1443.24,0.0,1.0
24102801,ed_desserts,6,test,8,assets\ed_desserts\whipped_cream_2.png,0,,1444.99,0.0,1.0
24102801,ed_desserts,6,test,9,assets\ed_desserts\whipped_cream_2.png,1,0.692,1446.73,1.0,1.0
24102801,ed_desserts,6,test,10,assets\ed_desserts\whipped_cream_1.png,0,,1448.48,0.0,1.0
24102801,ed_desserts,6,test,11,assets\ed_desserts\cake_1.png,0,,1450.22,0.0,1.0
24102801,ed_desserts,6,test,12,assets\ed_desserts\cheesecake_2.png,0,,1451.97,0.0,1.0
24102801,ed_desserts,6,test,13,assets\ed_desserts\cake_2.png,0,,1453.71,0.0,1.0
24102801,ed_desserts,6,test,14,assets\ed_desserts\sundae_3.png,0,,1455.46,0.0,1.0
24102801,ed_desserts,6,test,15,assets\ed_desserts\chocolate_1.png,0,,1457.2,0.0,1.0
24102801,ed_desserts,6,test,16,assets\ed_desserts\sundae_2.png,0,,1458.94,0.0,1.0
24102801,ed_desserts,6,test,17,assets\ed_desserts\cupcake_1.png,0,,1460.71,0.0,1.0
24102801,ed_desserts,6,test,18,assets\ed_desserts\cupcake_1.png,1,0.453,1462.47,1.0,1.0
24102801,ed_desserts,6,test,19,assets\ed_desserts\cheesecake_1.png,0,,1464.22,0.0,1.0
24102801,ed_desserts,6,test,20,assets\ed_desserts\pudding_1.png,0,,1465.96,0.0,1.0
24102801,ed_desserts,7,test,0,assets\ed_desserts\pudding_2.png,0,,1473.48,,
24102801,ed_desserts,7,test,1,assets\ed_desserts\flan_1.png,0,,1475.21,0.0,1.0
24102801,ed_desserts,7,test,2,assets\ed_desserts\pudding_3.png,0,,1476.96,0.0,1.0
24102801,ed_desserts,7,test,3,assets\ed_desserts\fruitcake_3.png,0,,1478.7,0.0,1.0
24102801,ed_desserts,7,test,4,assets\ed_desserts\sorbet_2.png,0,,1480.47,0.0,1.0
24102801,ed_desserts,7,test,5,assets\ed_desserts\mousse_2.png,0,,1482.21,0.0,1.0
24102801,ed_desserts,7,test,6,assets\ed_desserts\parfait_2.png,0,,1483.96,0.0,1.0
24102801,ed_desserts,7,test,7,assets\ed_desserts\fruitcake_1.png,0,,1485.71,0.0,1.0
24102801,ed_desserts,7,test,8,assets\ed_desserts\tiramisu_3.png,0,,1487.68,0.0,1.0
24102801,ed_desserts,7,test,9,assets\ed_desserts\fudge_2.png,0,,1489.41,0.0,1.0
24102801,ed_desserts,7,test,10,assets\ed_desserts\brownie_2.png,0,,1491.17,0.0,1.0
24102801,ed_desserts,7,test,11,assets\ed_desserts\mousse_1.png,0,,1492.91,0.0,1.0
24102801,ed_desserts,7,test,12,assets\ed_desserts\milkshake_1.png,0,,1494.65,0.0,1.0
24102801,ed_desserts,7,test,13,assets\ed_desserts\tiramisu_2.png,0,,1496.38,0.0,1.0
24102801,ed_desserts,7,test,14,assets\ed_desserts\milkshake_2.png,0,,1498.12,0.0,1.0
24102801,ed_desserts,7,test,15,assets\ed_desserts\cheesecake_3.png,0,,1499.85,0.0,1.0
24102801,ed_desserts,7,test,16,assets\ed_desserts\mousse_3.png,0,,1501.59,0.0,1.0
24102801,ed_desserts,7,test,17,assets\ed_desserts\parfait_3.png,0,,1503.32,0.0,1.0
24102801,ed_desserts,7,test,18,assets\ed_desserts\sorbet_3.png,0,,1505.06,0.0,1.0
24102801,ed_desserts,7,test,19,assets\ed_desserts\fudge_1.png,0,,1506.79,0.0,1.0
24102801,ed_desserts,7,test,20,assets\ed_desserts\parfait_1.png,0,,1508.54,0.0,1.0
24102801,ed_desserts,8,test,0,assets\ed_desserts\banana_split_1.png,0,,1515.9,,
24102801,ed_desserts,8,test,1,assets\ed_desserts\whipped_cream_2.png,0,,1517.63,0.0,1.0
24102801,ed_desserts,8,test,2,assets\ed_desserts\whipped_cream_2.png,1,0.637,1519.37,1.0,1.0
24102801,ed_desserts,8,test,3,assets\ed_desserts\milkshake_3.png,0,,1521.1,0.0,1.0
24102801,ed_desserts,8,test,4,assets\ed_desserts\chocolate_3.png,0,,1522.84,0.0,1.0
24102801,ed_desserts,8,test,5,assets\ed_desserts\popsicle_1.png,0,,1524.58,0.0,1.0
24102801,ed_desserts,8,test,6,assets\ed_desserts\tiramisu_1.png,0,,1526.32,0.0,1.0
24102801,ed_desserts,8,test,7,assets\ed_desserts\popsicle_3.png,0,,1528.05,0.0,1.0
24102801,ed_desserts,8,test,8,assets\ed_desserts\whipped_cream_3.png,0,,1529.81,0.0,1.0
24102801,ed_desserts,8,test,9,assets\ed_desserts\fudge_3.png,0,,1531.54,0.0,1.0
24102801,ed_desserts,8,test,10,assets\ed_desserts\cheesecake_2.png,0,,1533.28,0.0,1.0
24102801,ed_desserts,8,test,11,assets\ed_desserts\cheesecake_2.png,1,0.684,1535.01,1.0,1.0
24102801,ed_desserts,8,test,12,assets\ed_desserts\pudding_2.png,0,,1536.77,0.0,1.0
24102801,ed_desserts,8,test,13,assets\ed_desserts\cake_2.png,0,,1538.51,0.0,1.0
24102801,ed_desserts,8,test,14,assets\ed_desserts\pudding_1.png,0,,1540.24,0.0,1.0
24102801,ed_desserts,8,test,15,assets\ed_desserts\cake_3.png,0,,1541.98,0.0,1.0
24102801,ed_desserts,8,test,16,assets\ed_desserts\flan_2.png,0,,1543.72,0.0,1.0
24102801,ed_desserts,8,test,17,assets\ed_desserts\fruitcake_2.png,0,,1545.45,0.0,1.0
24102801,ed_desserts,8,test,18,assets\ed_desserts\sundae_3.png,0,,1547.19,0.0,1.0
24102801,ed_desserts,8,test,19,assets\ed_desserts\banana_split_3.png,0,,1548.94,0.0,1.0
24102801,ed_desserts,8,test,20,assets\ed_desserts\flan_3.png,0,,1550.67,0.0,1.0
24102801,ed_desserts,9,test,0,assets\ed_desserts\wedding_cake_1.png,0,,1558.2,,
24102801,ed_desserts,9,test,1,assets\ed_desserts\fruitcake_3.png,0,,1559.93,0.0,1.0
24102801,ed_desserts,9,test,2,assets\ed_desserts\donut_1.png,0,,1561.86,0.0,1.0
24102801,ed_desserts,9,test,3,assets\ed_desserts\cupcake_1.png,0,,1563.64,0.0,1.0
24102801,ed_desserts,9,test,4,assets\ed_desserts\fruitcake_1.png,0,,1565.38,0.0,1.0
24102801,ed_desserts,9,test,5,assets\ed_desserts\pudding_3.png,0,,1567.12,0.0,1.0
24102801,ed_desserts,9,test,6,assets\ed_desserts\wedding_cake_2.png,0,,1568.86,0.0,1.0
24102801,ed_desserts,9,test,7,assets\ed_desserts\donut_3.png,0,,1570.6,0.0,1.0
24102801,ed_desserts,9,test,8,assets\ed_desserts\donut_3.png,1,0.525,1572.33,1.0,1.0
24102801,ed_desserts,9,test,9,assets\ed_desserts\cheesecake_3.png,0,,1574.08,0.0,1.0
24102801,ed_desserts,9,test,10,assets\ed_desserts\cheesecake_3.png,1,0.727,1575.82,1.0,1.0
24102801,ed_desserts,9,test,11,assets\ed_desserts\milkshake_1.png,0,,1577.56,0.0,1.0
24102801,ed_desserts,9,test,12,assets\ed_desserts\mousse_2.png,0,,1579.29,0.0,1.0
24102801,ed_desserts,9,test,13,assets\ed_desserts\mousse_2.png,1,0.679,1581.03,1.0,1.0
24102801,ed_desserts,9,test,14,assets\ed_desserts\mousse_2.png,1,0.845,1582.76,1.0,1.0
24102801,ed_desserts,9,test,15,assets\ed_desserts\mousse_2.png,1,0.799,1584.5,1.0,1.0
24102801,ed_desserts,9,test,16,assets\ed_desserts\parfait_3.png,0,,1586.23,0.0,1.0
24102801,ed_desserts,9,test,17,assets\ed_desserts\parfait_3.png,1,0.577,1587.96,1.0,1.0
24102801,ed_desserts,9,test,18,assets\ed_desserts\fudge_1.png,0,,1589.69,0.0,1.0
24102801,ed_desserts,9,test,19,assets\ed_desserts\tiramisu_3.png,0,,1591.65,0.0,1.0
24102801,ed_desserts,9,test,20,assets\ed_desserts\mousse_3.png,0,,1593.38,0.0,1.0
24102801,ed_desserts,10,test,0,assets\ed_desserts\parfait_2.png,0,,1600.97,,
24102801,ed_desserts,10,test,1,assets\ed_desserts\brownie_3.png,0,,1602.72,0.0,1.0
24102801,ed_desserts,10,test,2,assets\ed_desserts\sorbet_1.png,0,,1604.47,0.0,1.0
24102801,ed_desserts,10,test,3,assets\ed_desserts\brownie_1.png,0,,1606.35,0.0,1.0
24102801,ed_desserts,10,test,4,assets\ed_desserts\popsicle_3.png,0,,1608.08,0.0,1.0
24102801,ed_desserts,10,test,5,assets\ed_desserts\whipped_cream_1.png,0,,1609.81,0.0,1.0
24102801,ed_desserts,10,test,6,assets\ed_desserts\parfait_1.png,0,,1611.55,0.0,1.0
24102801,ed_desserts,10,test,7,assets\ed_desserts\parfait_1.png,1,0.625,1613.28,1.0,1.0
24102801,ed_desserts,10,test,8,assets\ed_desserts\fudge_2.png,0,,1615.02,0.0,1.0
24102801,ed_desserts,10,test,9,assets\ed_desserts\tiramisu_1.png,0,,1616.75,0.0,1.0
24102801,ed_desserts,10,test,10,assets\ed_desserts\popsicle_1.png,0,,1618.49,0.0,1.0
24102801,ed_desserts,10,test,11,assets\ed_desserts\sorbet_3.png,0,,1620.23,0.0,1.0
24102801,ed_desserts,10,test,12,assets\ed_desserts\cupcake_3.png,0,,1622.21,0.0,1.0
24102801,ed_desserts,10,test,13,assets\ed_desserts\chocolate_3.png,0,,1623.95,0.0,1.0
24102801,ed_desserts,10,test,14,assets\ed_desserts\fruitcake_2.png,0,,1625.68,0.0,1.0
24102801,ed_desserts,10,test,15,assets\ed_desserts\brownie_2.png,0,,1627.44,0.0,1.0
24102801,ed_desserts,10,test,16,assets\ed_desserts\banana_split_3.png,0,,1629.18,0.0,1.0
24102801,ed_desserts,10,test,17,assets\ed_desserts\cupcake_2.png,0,,1631.11,0.0,1.0
24102801,ed_desserts,10,test,18,assets\ed_desserts\donut_2.png,0,,1632.85,0.0,1.0
24102801,ed_desserts,10,test,19,assets\ed_desserts\chocolate_1.png,1,0.758,1634.59,0.0,0.0
24102801,ed_desserts,10,test,20,assets\ed_desserts\cupcake_1.png,0,,1636.37,0.0,1.0
24102801,ed_clothing,1,test,0,assets\ed_clothing\hoodie_2.png,0,,1666.61,,
24102801,ed_clothing,1,test,1,assets\ed_clothing\vest_1.png,0,,1668.4,0.0,1.0
24102801,ed_clothing,1,test,2,assets\ed_clothing\robe_2.png,0,,1670.43,0.0,1.0
24102801,ed_clothing,1,test,3,assets\ed_clothing\lab_coat_3.png,0,,1672.2,0.0,1.0
24102801,ed_clothing,1,test,4,assets\ed_clothing\polo_shirt_3.png,0,,1673.99,0.0,1.0
24102801,ed_clothing,1,test,5,assets\ed_clothing\corset_1.png,0,,1675.84,0.0,1.0
24102801,ed_clothing,1,test,6,assets\ed_clothing\nightshirt_3.png,0,,1677.59,0.0,1.0
24102801,ed_clothing,1,test,7,assets\ed_clothing\swimsuit_2.png,0,,1679.34,0.0,1.0
24102801,ed_clothing,1,test,8,assets\ed_clothing\polo_shirt_2.png,0,,1681.1,0.0,1.0
24102801,ed_clothing,1,test,9,assets\ed_clothing\nightshirt_2.png,0,,1682.84,0.0,1.0
24102801,ed_clothing,1,test,10,assets\ed_clothing\jumpsuit_1.png,0,,1684.59,0.0,1.0
24102801,ed_clothing,1,test,11,assets\ed_clothing\vest_3.png,0,,1686.35,0.0,1.0
24102801,ed_clothing,1,test,12,assets\ed_clothing\leggings_3.png,0,,1688.11,0.0,1.0
24102801,ed_clothing,1,test,13,assets\ed_clothing\lab_coat_1.png,0,,1689.85,0.0,1.0
24102801,ed_clothing,1,test,14,assets\ed_clothing\toga_2.png,0,,1691.62,0.0,1.0
24102801,ed_clothing,1,test,15,assets\ed_clothing\corset_3.png,0,,1693.56,0.0,1.0
24102801,ed_clothing,1,test,16,assets\ed_clothing\corset_2.png,0,,1695.41,0.0,1.0
24102801,ed_clothing,1,test,17,assets\ed_clothing\cloak_2.png,0,,1697.15,0.0,1.0
24102801,ed_clothing,1,test,18,assets\ed_clothing\robe_1.png,0,,1699.22,0.0,1.0
24102801,ed_clothing,1,test,19,assets\ed_clothing\vest_2.png,0,,1700.98,0.0,1.0
24102801,ed_clothing,1,test,20,assets\ed_clothing\cloak_3.png,0,,1702.83,0.0,1.0
24102801,ed_clothing,2,test,0,assets\ed_clothing\toga_3.png,0,,1710.39,,
24102801,ed_clothing,2,test,1,assets\ed_clothing\toga_1.png,0,,1712.13,0.0,1.0
24102801,ed_clothing,2,test,2,assets\ed_clothing\blazer_2.png,0,,1713.87,0.0,1.0
24102801,ed_clothing,2,test,3,assets\ed_clothing\glove_1.png,0,,1715.62,0.0,1.0
24102801,ed_clothing,2,test,4,assets\ed_clothing\cloak_1.png,0,,1717.37,0.0,1.0
24102801,ed_clothing,2,test,5,assets\ed_clothing\overalls_2.png,0,,1719.11,0.0,1.0
24102801,ed_clothing,2,test,6,assets\ed_clothing\pajamas_1.png,0,,1720.85,0.0,1.0
24102801,ed_clothing,2,test,7,assets\ed_clothing\leggings_1.png,0,,1722.59,0.0,1.0
24102801,ed_clothing,2,test,8,assets\ed_clothing\jacket_1.png,0,,1724.79,0.0,1.0
24102801,ed_clothing,2,test,9,assets\ed_clothing\sock_2.png,0,,1726.61,0.0,1.0
24102801,ed_clothing,2,test,10,assets\ed_clothing\tube_top_3.png,0,,1728.4,0.0,1.0
24102801,ed_clothing,2,test,11,assets\ed_clothing\hoodie_3.png,0,,1730.15,0.0,1.0
24102801,ed_clothing,2,test,12,assets\ed_clothing\swimsuit_1.png,0,,1731.9,0.0,1.0
24102801,ed_clothing,2,test,13,assets\ed_clothing\fur_coat_1.png,0,,1733.71,0.0,1.0
24102801,ed_clothing,2,test,14,assets\ed_clothing\fur_coat_1.png,1,0.646,1735.48,1.0,1.0
24102801,ed_clothing,2,test,15,assets\ed_clothing\pajamas_2.png,0,,1737.25,0.0,1.0
24102801,ed_clothing,2,test,16,assets\ed_clothing\tube_top_1.png,0,,1738.99,0.0,1.0
24102801,ed_clothing,2,test,17,assets\ed_clothing\tube_top_2.png,0,,1740.74,0.0,1.0
24102801,ed_clothing,2,test,18,assets\ed_clothing\sock_1.png,0,,1742.48,0.0,1.0
24102801,ed_clothing,2,test,19,assets\ed_clothing\jacket_2.png,0,,1744.29,0.0,1.0
24102801,ed_clothing,2,test,20,assets\ed_clothing\lab_coat_2.png,0,,1746.03,0.0,1.0
24102801,ed_clothing,3,test,0,assets\ed_clothing\lab_coat_3.png,0,,1753.81,,
24102801,ed_clothing,3,test,1,assets\ed_clothing\polo_shirt_2.png,0,,1755.55,0.0,1.0
24102801,ed_clothing,3,test,2,assets\ed_clothing\polo_shirt_2.png,1,0.974,1757.29,1.0,1.0
24102801,ed_clothing,3,test,3,assets\ed_clothing\fur_coat_3.png,0,,1759.13,0.0,1.0
24102801,ed_clothing,3,test,4,assets\ed_clothing\fur_coat_3.png,1,0.65,1760.98,1.0,1.0
24102801,ed_clothing,3,test,5,assets\ed_clothing\leggings_2.png,0,,1762.73,0.0,1.0
24102801,ed_clothing,3,test,6,assets\ed_clothing\leggings_2.png,1,0.638,1764.47,1.0,1.0
24102801,ed_clothing,3,test,7,assets\ed_clothing\leggings_2.png,1,0.724,1766.21,1.0,1.0
24102801,ed_clothing,3,test,8,assets\ed_clothing\glove_3.png,0,,1768.19,0.0,1.0
24102801,ed_clothing,3,test,9,assets\ed_clothing\nightshirt_3.png,0,,1769.93,0.0,1.0
24102801,ed_clothing,3,test,10,assets\ed_clothing\overalls_3.png,0,,1771.67,0.0,1.0
24102801,ed_clothing,3,test,11,assets\ed_clothing\jumpsuit_2.png,0,,1773.43,0.0,1.0
24102801,ed_clothing,3,test,12,assets\ed_clothing\blazer_3.png,0,,1775.19,0.0,1.0
24102801,ed_clothing,3,test,13,assets\ed_clothing\hoodie_2.png,0,,1776.94,0.0,1.0
24102801,ed_clothing,3,test,14,assets\ed_clothing\glove_2.png,0,,1778.95,0.0,1.0
24102801,ed_clothing,3,test,15,assets\ed_clothing\glove_2.png,1,0.647,1780.88,1.0,1.0
24102801,ed_clothing,3,test,16,assets\ed_clothing\polo_shirt_3.png,0,,1782.65,0.0,1.0
24102801,ed_clothing,3,test,17,assets\ed_clothing\hoodie_1.png,0,,1784.41,0.0,1.0
24102801,ed_clothing,3,test,18,assets\ed_clothing\jacket_3.png,0,,1786.16,0.0,1.0
24102801,ed_clothing,3,test,19,assets\ed_clothing\robe_2.png,0,,1788.18,0.0,1.0
24102801,ed_clothing,3,test,20,assets\ed_clothing\overalls_1.png,0,,1789.91,0.0,1.0
24102801,ed_clothing,4,test,0,assets\ed_clothing\swimsuit_3.png,0,,1797.4,,
24102801,ed_clothing,4,test,1,assets\ed_clothing\swimsuit_3.png,1,0.73,1799.17,1.0,1.0
24102801,ed_clothing,4,test,2,assets\ed_clothing\blazer_2.png,0,,1800.9,0.0,1.0
24102801,ed_clothing,4,test,3,assets\ed_clothing\glove_1.png,0,,1802.64,0.0,1.0
24102801,ed_clothing,4,test,4,assets\ed_clothing\corset_1.png,0,,1804.45,0.0,1.0
24102801,ed_clothing,4,test,5,assets\ed_clothing\nightshirt_1.png,0,,1806.19,0.0,1.0
24102801,ed_clothing,4,test,6,assets\ed_clothing\nightshirt_1.png,1,0.653,1807.93,1.0,1.0
24102801,ed_clothing,4,test,7,assets\ed_clothing\pajamas_1.png,0,,1809.67,0.0,1.0
24102801,ed_clothing,4,test,8,assets\ed_clothing\jumpsuit_3.png,0,,1811.81,0.0,1.0
24102801,ed_clothing,4,test,9,assets\ed_clothing\leggings_1.png,0,,1813.54,0.0,1.0
24102801,ed_clothing,4,test,10,assets\ed_clothing\nightshirt_2.png,0,,1815.27,0.0,1.0
24102801,ed_clothing,4,test,11,assets\ed_clothing\cloak_3.png,0,,1817.12,0.0,1.0
24102801,ed_clothing,4,test,12,assets\ed_clothing\cloak_2.png,0,,1818.86,0.0,1.0
24102801,ed_clothing,4,test,13,assets\ed_clothing\pajamas_2.png,0,,1820.61,0.0,1.0
24102801,ed_clothing,4,test,14,assets\ed_clothing\toga_3.png,0,,1822.34,0.0,1.0
24102801,ed_clothing,4,test,15,assets\ed_clothing\polo_shirt_1.png,0,,1824.11,0.0,1.0
24102801,ed_clothing,4,test,16,assets\ed_clothing\polo_shirt_1.png,1,0.591,1825.86,1.0,1.0
24102801,ed_clothing,4,test,17,assets\ed_clothing\robe_1.png,0,,1827.87,0.0,1.0
24102801,ed_clothing,4,test,18,assets\ed_clothing\jacket_1.png,0,,1830.06,0.0,1.0
24102801,ed_clothing,4,test,19,assets\ed_clothing\toga_2.png,0,,1831.83,0.0,1.0
24102801,ed_clothing,4,test,20,assets\ed_clothing\vest_2.png,0,,1833.59,0.0,1.0
24102801,ed_clothing,5,test,0,assets\ed_clothing\cloak_1.png,0,,1842.51,,
24102801,ed_clothing,5,test,1,assets\ed_clothing\cloak_1.png,1,0.861,1844.25,1.0,1.0
24102801,ed_clothing,5,test,2,assets\ed_clothing\cloak_1.png,1,0.797,1845.98,1.0,1.0
24102801,ed_clothing,5,test,3,assets\ed_clothing\glove_3.png,0,,1847.98,0.0,1.0
24102801,ed_clothing,5,test,4,assets\ed_clothing\vest_3.png,0,,1849.72,0.0,1.0
24102801,ed_clothing,5,test,5,assets\ed_clothing\vest_1.png,0,,1851.49,0.0,1.0
24102801,ed_clothing,5,test,6,assets\ed_clothing\sock_1.png,0,,1853.23,0.0,1.0
24102801,ed_clothing,5,test,7,assets\ed_clothing\swimsuit_1.png,0,,1854.97,0.0,1.0
24102801,ed_clothing,5,test,8,assets\ed_clothing\pajamas_3.png,0,,1856.7,0.0,1.0
24102801,ed_clothing,5,test,9,assets\ed_clothing\fur_coat_1.png,0,,1858.49,0.0,1.0
24102801,ed_clothing,5,test,10,assets\ed_clothing\glove_2.png,0,,1860.41,0.0,1.0
24102801,ed_clothing,5,test,11,assets\ed_clothing\leggings_2.png,0,,1862.15,0.0,1.0
24102801,ed_clothing,5,test,12,assets\ed_clothing\leggings_2.png,1,0.578,1863.89,1.0,1.0
24102801,ed_clothing,5,test,13,assets\ed_clothing\tube_top_1.png,0,,1865.62,0.0,1.0
24102801,ed_clothing,5,test,14,assets\ed_clothing\tube_top_1.png,1,0.517,1867.34,1.0,1.0
24102801,ed_clothing,5,test,15,assets\ed_clothing\sock_3.png,0,,1869.08,0.0,1.0
24102801,ed_clothing,5,test,16,assets\ed_clothing\blazer_1.png,0,,1870.82,0.0,1.0
24102801,ed_clothing,5,test,17,assets\ed_clothing\jumpsuit_2.png,0,,1872.57,0.0,1.0
24102801,ed_clothing,5,test,18,assets\ed_clothing\jumpsuit_2.png,1,0.653,1874.32,1.0,1.0
24102801,ed_clothing,5,test,19,assets\ed_clothing\jacket_2.png,0,,1876.12,0.0,1.0
24102801,ed_clothing,5,test,20,assets\ed_clothing\tube_top_2.png,0,,1877.86,0.0,1.0
24102801,ed_clothing,6,test,0,assets\ed_clothing\corset_3.png,0,,1885.41,,
24102801,ed_clothing,6,test,1,assets\ed_clothing\corset_3.png,1,0.772,1887.29,1.0,1.0
24102801,ed_clothing,6,test,2,assets\ed_clothing\corset_3.png,0,,1889.16,1.0,0.0
24102801,ed_clothing,6,test,3,assets\ed_clothing\corset_3.png,1,0.105,1891.04,1.0,1.0
24102801,ed_clothing,6,test,4,assets\ed_clothing\lab_coat_2.png,0,,1892.77,0.0,1.0
24102801,ed_clothing,6,test,5,assets\ed_clothing\sock_2.png,0,,1894.59,0.0,1.0
24102801,ed_clothing,6,test,6,assets\ed_clothing\jumpsuit_1.png,0,,1896.33,0.0,1.0
24102801,ed_clothing,6,test,7,assets\ed_clothing\overalls_1.png,0,,1898.06,0.0,1.0
24102801,ed_clothing,6,test,8,assets\ed_clothing\glove_1.png,0,,1899.8,0.0,1.0
24102801,ed_clothing,6,test,9,assets\ed_clothing\nightshirt_2.png,0,,1901.53,0.0,1.0
24102801,ed_clothing,6,test,10,assets\ed_clothing\leggings_1.png,0,,1903.26,0.0,1.0
24102801,ed_clothing,6,test,11,assets\ed_clothing\pajamas_1.png,0,,1905.0,0.0,1.0
24102801,ed_clothing,6,test,12,assets\ed_clothing\blazer_3.png,0,,1906.76,0.0,1.0
24102801,ed_clothing,6,test,13,assets\ed_clothing\corset_1.png,0,,1908.6,0.0,1.0
24102801,ed_clothing,6,test,14,assets\ed_clothing\fur_coat_3.png,0,,1910.48,0.0,1.0
24102801,ed_clothing,6,test,15,assets\ed_clothing\cloak_2.png,0,,1912.23,0.0,1.0
24102801,ed_clothing,6,test,16,assets\ed_clothing\jacket_1.png,0,,1914.41,0.0,1.0
24102801,ed_clothing,6,test,17,assets\ed_clothing\lab_coat_3.png,0,,1916.17,0.0,1.0
24102801,ed_clothing,6,test,18,assets\ed_clothing\lab_coat_3.png,1,0.544,1917.93,1.0,1.0
24102801,ed_clothing,6,test,19,assets\ed_clothing\toga_3.png,0,,1919.66,0.0,1.0
24102801,ed_clothing,6,test,20,assets\ed_clothing\blazer_2.png,0,,1921.41,0.0,1.0
24102801,ed_clothing,7,test,0,assets\ed_clothing\robe_2.png,0,,1929.29,,
24102801,ed_clothing,7,test,1,assets\ed_clothing\nightshirt_3.png,0,,1931.02,0.0,1.0
24102801,ed_clothing,7,test,2,assets\ed_clothing\cloak_3.png,0,,1932.83,0.0,1.0
24102801,ed_clothing,7,test,3,assets\ed_clothing\vest_2.png,0,,1934.58,0.0,1.0
24102801,ed_clothing,7,test,4,assets\ed_clothing\tube_top_3.png,0,,1936.35,0.0,1.0
24102801,ed_clothing,7,test,5,assets\ed_clothing\fur_coat_2.png,0,,1938.1,0.0,1.0
24102801,ed_clothing,7,test,6,assets\ed_clothing\toga_2.png,0,,1939.85,0.0,1.0
24102801,ed_clothing,7,test,7,assets\ed_clothing\glove_3.png,0,,1941.82,0.0,1.0
24102801,ed_clothing,7,test,8,assets\ed_clothing\polo_shirt_1.png,0,,1943.57,0.0,1.0
24102801,ed_clothing,7,test,9,assets\ed_clothing\vest_3.png,0,,1945.31,0.0,1.0
24102801,ed_clothing,7,test,10,assets\ed_clothing\vest_3.png,1,0.51,1947.04,1.0,1.0
24102801,ed_clothing,7,test,11,assets\ed_clothing\overalls_2.png,0,,1948.77,0.0,1.0
24102801,ed_clothing,7,test,12,assets\ed_clothing\robe_3.png,0,,1950.91,0.0,1.0
24102801,ed_clothing,7,test,13,assets\ed_clothing\polo_shirt_2.png,0,,1952.66,0.0,1.0
24102801,ed_clothing,7,test,14,assets\ed_clothing\polo_shirt_2.png,1,0.489,1954.4,1.0,1.0
24102801,ed_clothing,7,test,15,assets\ed_clothing\swimsuit_1.png,0,,1956.14,0.0,1.0
24102801,ed_clothing,7,test,16,assets\ed_clothing\hoodie_2.png,0,,1957.9,0.0,1.0
24102801,ed_clothing,7,test,17,assets\ed_clothing\jacket_3.png,0,,1959.64,0.0,1.0
24102801,ed_clothing,7,test,18,assets\ed_clothing\tube_top_1.png,0,,1961.37,0.0,1.0
24102801,ed_clothing,7,test,19,assets\ed_clothing\tube_top_1.png,1,0.623,1963.1,1.0,1.0
24102801,ed_clothing,7,test,20,assets\ed_clothing\polo_shirt_3.png,0,,1964.86,0.0,1.0
24102801,ed_clothing,8,test,0,assets\ed_clothing\overalls_1.png,0,,1972.44,,
24102801,ed_clothing,8,test,1,assets\ed_clothing\toga_1.png,0,,1974.17,0.0,1.0
24102801,ed_clothing,8,test,2,assets\ed_clothing\nightshirt_1.png,0,,1975.91,0.0,1.0
24102801,ed_clothing,8,test,3,assets\ed_clothing\swimsuit_2.png,0,,1977.66,0.0,1.0
24102801,ed_clothing,8,test,4,assets\ed_clothing\nightshirt_2.png,0,,1979.38,0.0,1.0
24102801,ed_clothing,8,test,5,assets\ed_clothing\pajamas_3.png,0,,1981.11,0.0,1.0
24102801,ed_clothing,8,test,6,assets\ed_clothing\blazer_3.png,0,,1982.86,0.0,1.0
24102801,ed_clothing,8,test,7,assets\ed_clothing\blazer_3.png,1,0.661,1984.61,1.0,1.0
24102801,ed_clothing,8,test,8,assets\ed_clothing\pajamas_2.png,0,,1986.36,0.0,1.0
24102801,ed_clothing,8,test,9,assets\ed_clothing\hoodie_3.png,0,,1988.1,0.0,1.0
24102801,ed_clothing,8,test,10,assets\ed_clothing\corset_3.png,0,,1989.99,0.0,1.0
24102801,ed_clothing,8,test,11,assets\ed_clothing\jumpsuit_2.png,0,,1991.74,0.0,1.0
24102801,ed_clothing,8,test,12,assets\ed_clothing\glove_1.png,0,,1993.48,0.0,1.0
24102801,ed_clothing,8,test,13,assets\ed_clothing\glove_1.png,1,0.719,1995.22,1.0,1.0
24102801,ed_clothing,8,test,14,assets\ed_clothing\swimsuit_3.png,0,,1996.99,0.0,1.0
24102801,ed_clothing,8,test,15,assets\ed_clothing\pajamas_1.png,0,,1998.72,0.0,1.0
24102801,ed_clothing,8,test,16,assets\ed_clothing\pajamas_1.png,1,0.579,2000.45,1.0,1.0
24102801,ed_clothing,8,test,17,assets\ed_clothing\sock_1.png,0,,2002.19,0.0,1.0
24102801,ed_clothing,8,test,18,assets\ed_clothing\sock_1.png,1,0.614,2003.93,1.0,1.0
24102801,ed_clothing,8,test,19,assets\ed_clothing\lab_coat_3.png,0,,2005.69,0.0,1.0
24102801,ed_clothing,8,test,20,assets\ed_clothing\leggings_2.png,0,,2007.43,0.0,1.0
24102801,ed_clothing,9,test,0,assets\ed_clothing\tube_top_3.png,0,,2015.02,,
24102801,ed_clothing,9,test,1,assets\ed_clothing\corset_2.png,0,,2016.86,0.0,1.0
24102801,ed_clothing,9,test,2,assets\ed_clothing\robe_1.png,0,,2018.87,0.0,1.0
24102801,ed_clothing,9,test,3,assets\ed_clothing\corset_1.png,0,,2020.7,0.0,1.0
24102801,ed_clothing,9,test,4,assets\ed_clothing\lab_coat_2.png,0,,2022.44,0.0,1.0
24102801,ed_clothing,9,test,5,assets\ed_clothing\cloak_1.png,0,,2024.17,0.0,1.0
24102801,ed_clothing,9,test,6,assets\ed_clothing\vest_3.png,0,,2025.91,0.0,1.0
24102801,ed_clothing,9,test,7,assets\ed_clothing\jacket_2.png,0,,2027.68,0.0,1.0
24102801,ed_clothing,9,test,8,assets\ed_clothing\nightshirt_3.png,0,,2029.41,0.0,1.0
24102801,ed_clothing,9,test,9,assets\ed_clothing\cloak_2.png,0,,2031.15,0.0,1.0
24102801,ed_clothing,9,test,10,assets\ed_clothing\polo_shirt_1.png,0,,2032.89,0.0,1.0
24102801,ed_clothing,9,test,11,assets\ed_clothing\fur_coat_2.png,0,,2034.63,0.0,1.0
24102801,ed_clothing,9,test,12,assets\ed_clothing\fur_coat_2.png,1,0.644,2036.37,1.0,1.0
24102801,ed_clothing,9,test,13,assets\ed_clothing\vest_1.png,0,,2038.16,0.0,1.0
24102801,ed_clothing,9,test,14,assets\ed_clothing\robe_3.png,0,,2040.28,0.0,1.0
24102801,ed_clothing,9,test,15,assets\ed_clothing\overalls_3.png,0,,2042.01,0.0,1.0
24102801,ed_clothing,9,test,16,assets\ed_clothing\robe_2.png,0,,2044.02,0.0,1.0
24102801,ed_clothing,9,test,17,assets\ed_clothing\blazer_2.png,0,,2045.76,0.0,1.0
24102801,ed_clothing,9,test,18,assets\ed_clothing\toga_1.png,0,,2047.5,0.0,1.0
24102801,ed_clothing,9,test,19,assets\ed_clothing\swimsuit_2.png,0,,2049.25,0.0,1.0
24102801,ed_clothing,9,test,20,assets\ed_clothing\tube_top_2.png,0,,2050.99,0.0,1.0
24102801,ed_clothing,10,test,0,assets\ed_clothing\hoodie_2.png,0,,2058.51,,
24102801,ed_clothing,10,test,1,assets\ed_clothing\sock_3.png,0,,2060.25,0.0,1.0
24102801,ed_clothing,10,test,2,assets\ed_clothing\jumpsuit_3.png,0,,2062.39,0.0,1.0
24102801,ed_clothing,10,test,3,assets\ed_clothing\overalls_2.png,0,,2064.12,0.0,1.0
24102801,ed_clothing,10,test,4,assets\ed_clothing\pajamas_2.png,0,,2065.87,0.0,1.0
24102801,ed_clothing,10,test,5,assets\ed_clothing\swimsuit_1.png,0,,2067.61,0.0,1.0
24102801,ed_clothing,10,test,6,assets\ed_clothing\hoodie_1.png,0,,2069.35,0.0,1.0
24102801,ed_clothing,10,test,7,assets\ed_clothing\polo_shirt_3.png,0,,2071.11,0.0,1.0
24102801,ed_clothing,10,test,8,assets\ed_clothing\nightshirt_2.png,0,,2072.83,0.0,1.0
24102801,ed_clothing,10,test,9,assets\ed_clothing\fur_coat_3.png,0,,2074.66,0.0,1.0
24102801,ed_clothing,10,test,10,assets\ed_clothing\polo_shirt_2.png,0,,2076.4,0.0,1.0
24102801,ed_clothing,10,test,11,assets\ed_clothing\glove_1.png,0,,2078.14,0.0,1.0
24102801,ed_clothing,10,test,12,assets\ed_clothing\jumpsuit_2.png,0,,2079.89,0.0,1.0
24102801,ed_clothing,10,test,13,assets\ed_clothing\robe_1.png,0,,2081.9,0.0,1.0
24102801,ed_clothing,10,test,14,assets\ed_clothing\toga_2.png,0,,2083.66,0.0,1.0
24102801,ed_clothing,10,test,15,assets\ed_clothing\corset_3.png,0,,2085.58,0.0,1.0
24102801,ed_clothing,10,test,16,assets\ed_clothing\toga_3.png,0,,2087.31,0.0,1.0
24102801,ed_clothing,10,test,17,assets\ed_clothing\leggings_3.png,0,,2089.05,0.0,1.0
24102801,ed_clothing,10,test,18,assets\ed_clothing\overalls_1.png,0,,2090.78,0.0,1.0
24102801,ed_clothing,10,test,19,assets\ed_clothing\leggings_1.png,0,,2092.52,0.0,1.0
24102801,ed_clothing,10,test,20,assets\ed_clothing\fur_coat_1.png,0,,2094.29,0.0,1.0
24102801,ed_instruments,1,test,0,assets\ed_instruments\tuba_3.png,0,,2124.46,,
24102801,ed_instruments,1,test,1,assets\ed_instruments\accoridan_3.png,0,,2126.2,0.0,1.0
24102801,ed_instruments,1,test,2,assets\ed_instruments\harmonica_2.png,0,,2127.97,0.0,1.0
24102801,ed_instruments,1,test,3,assets\ed_instruments\harmonica_2.png,1,0.792,2129.72,1.0,1.0
24102801,ed_instruments,1,test,4,assets\ed_instruments\trumpet_2.png,0,,2131.48,0.0,1.0
24102801,ed_instruments,1,test,5,assets\ed_instruments\flute_3.png,0,,2133.24,0.0,1.0
24102801,ed_instruments,1,test,6,assets\ed_instruments\saxophone_3.png,0,,2135.01,0.0,1.0
24102801,ed_instruments,1,test,7,assets\ed_instruments\tambourine_3.png,0,,2136.82,0.0,1.0
24102801,ed_instruments,1,test,8,assets\ed_instruments\saxophone_1.png,0,,2138.58,0.0,1.0
24102801,ed_instruments,1,test,9,assets\ed_instruments\bongo_1.png,0,,2140.32,0.0,1.0
24102801,ed_instruments,1,test,10,assets\ed_instruments\kazoo_2.png,0,,2142.07,0.0,1.0
24102801,ed_instruments,1,test,11,assets\ed_instruments\kazoo_2.png,1,0.547,2143.79,1.0,1.0
24102801,ed_instruments,1,test,12,assets\ed_instruments\cello_3.png,0,,2145.53,0.0,1.0
24102801,ed_instruments,1,test,13,assets\ed_instruments\kazoo_3.png,0,,2147.26,0.0,1.0
24102801,ed_instruments,1,test,14,assets\ed_instruments\tuba_1.png,0,,2148.99,0.0,1.0
24102801,ed_instruments,1,test,15,assets\ed_instruments\trumpet_3.png,0,,2150.73,0.0,1.0
24102801,ed_instruments,1,test,16,assets\ed_instruments\banjo_2.png,0,,2152.47,0.0,1.0
24102801,ed_instruments,1,test,17,assets\ed_instruments\banjo_2.png,1,0.523,2154.22,1.0,1.0
24102801,ed_instruments,1,test,18,assets\ed_instruments\cymbal_3.png,0,,2156.08,0.0,1.0
24102801,ed_instruments,1,test,19,assets\ed_instruments\mandolin_2.png,0,,2157.85,0.0,1.0
24102801,ed_instruments,1,test,20,assets\ed_instruments\bongo_2.png,0,,2159.59,0.0,1.0
24102801,ed_instruments,2,test,0,assets\ed_instruments\chime_3.png,0,,2166.96,,
24102801,ed_instruments,2,test,1,assets\ed_instruments\saxophone_2.png,0,,2168.7,0.0,1.0
24102801,ed_instruments,2,test,2,assets\ed_instruments\accordian_1.png,0,,2170.47,0.0,1.0
24102801,ed_instruments,2,test,3,assets\ed_instruments\harmonica_3.png,0,,2172.2,0.0,1.0
24102801,ed_instruments,2,test,4,assets\ed_instruments\cymbal_2.png,0,,2174.01,0.0,1.0
24102801,ed_instruments,2,test,5,assets\ed_instruments\violin_1.png,0,,2175.76,0.0,1.0
24102801,ed_instruments,2,test,6,assets\ed_instruments\violin_1.png,1,0.527,2177.49,1.0,1.0
24102801,ed_instruments,2,test,7,assets\ed_instruments\violin_1.png,1,0.643,2179.22,1.0,1.0
24102801,ed_instruments,2,test,8,assets\ed_instruments\tambourine_1.png,0,,2180.97,0.0,1.0
24102801,ed_instruments,2,test,9,assets\ed_instruments\bell_3.png,0,,2182.73,0.0,1.0
24102801,ed_instruments,2,test,10,assets\ed_instruments\harmonica_1.png,0,,2184.47,0.0,1.0
24102801,ed_instruments,2,test,11,assets\ed_instruments\cymbal_1.png,0,,2186.38,0.0,1.0
24102801,ed_instruments,2,test,12,assets\ed_instruments\bell_2.png,0,,2188.4,0.0,1.0
24102801,ed_instruments,2,test,13,assets\ed_instruments\trumpet_1.png,0,,2190.15,0.0,1.0
24102801,ed_instruments,2,test,14,assets\ed_instruments\ukulele_1.png,0,,2191.89,0.0,1.0
24102801,ed_instruments,2,test,15,assets\ed_instruments\piano_3.png,0,,2193.63,0.0,1.0
24102801,ed_instruments,2,test,16,assets\ed_instruments\gong_2.png,0,,2195.38,0.0,1.0
24102801,ed_instruments,2,test,17,assets\ed_instruments\tambourine_2.png,0,,2197.14,0.0,1.0
24102801,ed_instruments,2,test,18,assets\ed_instruments\piano_2.png,0,,2198.89,0.0,1.0
24102801,ed_instruments,2,test,19,assets\ed_instruments\piano_2.png,1,0.422,2200.63,1.0,1.0
24102801,ed_instruments,2,test,20,assets\ed_instruments\piano_2.png,1,0.606,2202.36,1.0,1.0
24102801,ed_instruments,3,test,0,assets\ed_instruments\cello_1.png,0,,2209.89,,
24102801,ed_instruments,3,test,1,assets\ed_instruments\cello_2.png,0,,2211.63,0.0,1.0
24102801,ed_instruments,3,test,2,assets\ed_instruments\ukulele_3.png,0,,2213.46,0.0,1.0
24102801,ed_instruments,3,test,3,assets\ed_instruments\bell_1.png,0,,2215.2,0.0,1.0
24102801,ed_instruments,3,test,4,assets\ed_instruments\gong_1.png,0,,2217.2,0.0,1.0
24102801,ed_instruments,3,test,5,assets\ed_instruments\violin_3.png,0,,2219.13,0.0,1.0
24102801,ed_instruments,3,test,6,assets\ed_instruments\harmonica_2.png,0,,2220.9,0.0,1.0
24102801,ed_instruments,3,test,7,assets\ed_instruments\accoridan_3.png,0,,2222.65,0.0,1.0
24102801,ed_instruments,3,test,8,assets\ed_instruments\cello_3.png,0,,2224.39,0.0,1.0
24102801,ed_instruments,3,test,9,assets\ed_instruments\trumpet_2.png,0,,2226.17,0.0,1.0
24102801,ed_instruments,3,test,10,assets\ed_instruments\kazoo_1.png,0,,2227.91,0.0,1.0
24102801,ed_instruments,3,test,11,assets\ed_instruments\tambourine_3.png,0,,2229.76,0.0,1.0
24102801,ed_instruments,3,test,12,assets\ed_instruments\bongo_3.png,0,,2231.5,0.0,1.0
24102801,ed_instruments,3,test,13,assets\ed_instruments\tuba_2.png,0,,2233.42,0.0,1.0
24102801,ed_instruments,3,test,14,assets\ed_instruments\banjo_1.png,0,,2235.16,0.0,1.0
24102801,ed_instruments,3,test,15,assets\ed_instruments\banjo_1.png,1,0.838,2236.9,1.0,1.0
24102801,ed_instruments,3,test,16,assets\ed_instruments\bagpipe_3.png,0,,2238.65,0.0,1.0
24102801,ed_instruments,3,test,17,assets\ed_instruments\accordian_2.png,0,,2240.44,0.0,1.0
24102801,ed_instruments,3,test,18,assets\ed_instruments\chime_1.png,0,,2242.21,0.0,1.0
24102801,ed_instruments,3,test,19,assets\ed_instruments\banjo_2.png,0,,2243.97,0.0,1.0
24102801,ed_instruments,3,test,20,assets\ed_instruments\bagpipe_2.png,0,,2245.78,0.0,1.0
24102801,ed_instruments,4,test,0,assets\ed_instruments\saxophone_3.png,0,,2253.13,,
24102801,ed_instruments,4,test,1,assets\ed_instruments\bagpipe_1.png,0,,2254.88,0.0,1.0
24102801,ed_instruments,4,test,2,assets\ed_instruments\saxophone_2.png,0,,2256.62,0.0,1.0
24102801,ed_instruments,4,test,3,assets\ed_instruments\tambourine_1.png,0,,2258.37,0.0,1.0
24102801,ed_instruments,4,test,4,assets\ed_instruments\gong_3.png,0,,2260.12,0.0,1.0
24102801,ed_instruments,4,test,5,assets\ed_instruments\cymbal_3.png,0,,2261.95,0.0,1.0
24102801,ed_instruments,4,test,6,assets\ed_instruments\chime_3.png,0,,2263.71,0.0,1.0
24102801,ed_instruments,4,test,7,assets\ed_instruments\kazoo_3.png,0,,2265.44,0.0,1.0
24102801,ed_instruments,4,test,8,assets\ed_instruments\cymbal_2.png,0,,2267.22,0.0,1.0
24102801,ed_instruments,4,test,9,assets\ed_instruments\trumpet_3.png,0,,2268.96,0.0,1.0
24102801,ed_instruments,4,test,10,assets\ed_instruments\flute_1.png,0,,2270.7,0.0,1.0
24102801,ed_instruments,4,test,11,assets\ed_instruments\tuba_1.png,0,,2272.44,0.0,1.0
24102801,ed_instruments,4,test,12,assets\ed_instruments\harmonica_3.png,0,,2274.17,0.0,1.0
24102801,ed_instruments,4,test,13,assets\ed_instruments\piano_2.png,0,,2275.92,0.0,1.0
24102801,ed_instruments,4,test,14,assets\ed_instruments\mandolin_2.png,0,,2277.69,0.0,1.0
24102801,ed_instruments,4,test,15,assets\ed_instruments\cello_2.png,0,,2279.44,0.0,1.0
24102801,ed_instruments,4,test,16,assets\ed_instruments\piano_3.png,0,,2281.18,0.0,1.0
24102801,ed_instruments,4,test,17,assets\ed_instruments\ukulele_2.png,0,,2282.94,0.0,1.0
24102801,ed_instruments,4,test,18,assets\ed_instruments\gong_1.png,0,,2284.91,0.0,1.0
24102801,ed_instruments,4,test,19,assets\ed_instruments\flute_2.png,0,,2286.65,0.0,1.0
24102801,ed_instruments,4,test,20,assets\ed_instruments\tambourine_2.png,0,,2288.41,0.0,1.0
24102801,ed_instruments,5,test,0,assets\ed_instruments\bongo_2.png,0,,2296.0,,
24102801,ed_instruments,5,test,1,assets\ed_instruments\bongo_2.png,1,0.658,2297.74,1.0,1.0
24102801,ed_instruments,5,test,2,assets\ed_instruments\violin_1.png,0,,2299.47,0.0,1.0
24102801,ed_instruments,5,test,3,assets\ed_instruments\violin_1.png,1,0.729,2301.2,1.0,1.0
24102801,ed_instruments,5,test,4,assets\ed_instruments\violin_3.png,0,,2303.1,0.0,1.0
24102801,ed_instruments,5,test,5,assets\ed_instruments\violin_3.png,1,0.599,2304.96,1.0,1.0
24102801,ed_instruments,5,test,6,assets\ed_instruments\chime_2.png,0,,2306.72,0.0,1.0
24102801,ed_instruments,5,test,7,assets\ed_instruments\chime_2.png,1,0.702,2308.48,1.0,1.0
24102801,ed_instruments,5,test,8,assets\ed_instruments\mandolin_3.png,0,,2310.22,0.0,1.0
24102801,ed_instruments,5,test,9,assets\ed_instruments\cello_1.png,0,,2312.05,0.0,1.0
24102801,ed_instruments,5,test,10,assets\ed_instruments\bell_1.png,0,,2313.79,0.0,1.0
24102801,ed_instruments,5,test,11,assets\ed_instruments\harmonica_1.png,0,,2315.52,0.0,1.0
24102801,ed_instruments,5,test,12,assets\ed_instruments\banjo_1.png,0,,2317.26,0.0,1.0
24102801,ed_instruments,5,test,13,assets\ed_instruments\tuba_2.png,0,,2319.17,0.0,1.0
24102801,ed_instruments,5,test,14,assets\ed_instruments\violin_2.png,0,,2320.93,0.0,1.0
24102801,ed_instruments,5,test,15,assets\ed_instruments\banjo_3.png,0,,2322.77,0.0,1.0
24102801,ed_instruments,5,test,16,assets\ed_instruments\saxophone_2.png,0,,2324.5,0.0,1.0
24102801,ed_instruments,5,test,17,assets\ed_instruments\tambourine_1.png,0,,2326.24,0.0,1.0
24102801,ed_instruments,5,test,18,assets\ed_instruments\flute_3.png,0,,2328.01,0.0,1.0
24102801,ed_instruments,5,test,19,assets\ed_instruments\harmonica_2.png,0,,2329.77,0.0,1.0
24102801,ed_instruments,5,test,20,assets\ed_instruments\accoridan_3.png,0,,2331.5,0.0,1.0
24102801,ed_instruments,6,test,0,assets\ed_instruments\mandolin_1.png,0,,2339.13,,
24102801,ed_instruments,6,test,1,assets\ed_instruments\accordian_1.png,0,,2340.91,0.0,1.0
24102801,ed_instruments,6,test,2,assets\ed_instruments\ukulele_3.png,0,,2342.7,0.0,1.0
24102801,ed_instruments,6,test,3,assets\ed_instruments\bagpipe_1.png,0,,2344.43,0.0,1.0
24102801,ed_instruments,6,test,4,assets\ed_instruments\kazoo_3.png,0,,2346.16,0.0,1.0
24102801,ed_instruments,6,test,5,assets\ed_instruments\cymbal_2.png,0,,2347.94,0.0,1.0
24102801,ed_instruments,6,test,6,assets\ed_instruments\saxophone_1.png,0,,2349.69,0.0,1.0
24102801,ed_instruments,6,test,7,assets\ed_instruments\banjo_2.png,0,,2351.43,0.0,1.0
24102801,ed_instruments,6,test,8,assets\ed_instruments\kazoo_2.png,0,,2353.16,0.0,1.0
24102801,ed_instruments,6,test,9,assets\ed_instruments\mandolin_2.png,0,,2354.91,0.0,1.0
24102801,ed_instruments,6,test,10,assets\ed_instruments\gong_2.png,0,,2356.65,0.0,1.0
24102801,ed_instruments,6,test,11,assets\ed_instruments\trumpet_3.png,0,,2358.38,0.0,1.0
24102801,ed_instruments,6,test,12,assets\ed_instruments\ukulele_2.png,0,,2360.11,0.0,1.0
24102801,ed_instruments,6,test,13,assets\ed_instruments\tambourine_3.png,0,,2361.95,0.0,1.0
24102801,ed_instruments,6,test,14,assets\ed_instruments\bagpipe_3.png,0,,2363.69,0.0,1.0
24102801,ed_instruments,6,test,15,assets\ed_instruments\trumpet_1.png,0,,2365.44,0.0,1.0
24102801,ed_instruments,6,test,16,assets\ed_instruments\piano_2.png,0,,2367.17,0.0,1.0
24102801,ed_instruments,6,test,17,assets\ed_instruments\trumpet_2.png,0,,2368.92,0.0,1.0
24102801,ed_instruments,6,test,18,assets\ed_instruments\violin_3.png,0,,2370.84,0.0,1.0
24102801,ed_instruments,6,test,19,assets\ed_instruments\cymbal_1.png,0,,2372.75,0.0,1.0
24102801,ed_instruments,6,test,20,assets\ed_instruments\ukulele_1.png,0,,2374.5,0.0,1.0
24102801,ed_instruments,7,test,0,assets\ed_instruments\saxophone_3.png,0,,2382.0,,
24102801,ed_instruments,7,test,1,assets\ed_instruments\harmonica_1.png,0,,2383.73,0.0,1.0
24102801,ed_instruments,7,test,2,assets\ed_instruments\tuba_2.png,0,,2385.62,0.0,1.0
24102801,ed_instruments,7,test,3,assets\ed_instruments\kazoo_1.png,0,,2387.35,0.0,1.0
24102801,ed_instruments,7,test,4,assets\ed_instruments\violin_2.png,0,,2389.1,0.0,1.0
24102801,ed_instruments,7,test,5,assets\ed_instruments\banjo_3.png,0,,2390.93,0.0,1.0
24102801,ed_instruments,7,test,6,assets\ed_instruments\piano_1.png,0,,2392.7,0.0,1.0
24102801,ed_instruments,7,test,7,assets\ed_instruments\piano_1.png,1,0.629,2394.46,1.0,1.0
24102801,ed_instruments,7,test,8,assets\ed_instruments\mandolin_3.png,0,,2396.19,0.0,1.0
24102801,ed_instruments,7,test,9,assets\ed_instruments\bongo_2.png,0,,2397.93,0.0,1.0
24102801,ed_instruments,7,test,10,assets\ed_instruments\bongo_2.png,1,0.808,2399.67,1.0,1.0
24102801,ed_instruments,7,test,11,assets\ed_instruments\cymbal_3.png,0,,2401.51,0.0,1.0
24102801,ed_instruments,7,test,12,assets\ed_instruments\cello_1.png,0,,2403.29,0.0,1.0
24102801,ed_instruments,7,test,13,assets\ed_instruments\cello_1.png,1,0.589,2405.08,1.0,1.0
24102801,ed_instruments,7,test,14,assets\ed_instruments\piano_3.png,0,,2406.81,0.0,1.0
24102801,ed_instruments,7,test,15,assets\ed_instruments\mandolin_1.png,0,,2408.56,0.0,1.0
24102801,ed_instruments,7,test,16,assets\ed_instruments\bagpipe_2.png,0,,2410.37,0.0,1.0
24102801,ed_instruments,7,test,17,assets\ed_instruments\accordian_1.png,0,,2412.16,0.0,1.0
24102801,ed_instruments,7,test,18,assets\ed_instruments\accordian_1.png,1,0.615,2413.93,1.0,1.0
24102801,ed_instruments,7,test,19,assets\ed_instruments\bell_3.png,0,,2415.7,0.0,1.0
24102801,ed_instruments,7,test,20,assets\ed_instruments\bell_2.png,1,0.711,2417.7,0.0,0.0
24102801,ed_instruments,8,test,0,assets\ed_instruments\tambourine_1.png,0,,2425.08,,
24102801,ed_instruments,8,test,1,assets\ed_instruments\bongo_3.png,0,,2426.81,0.0,1.0
24102801,ed_instruments,8,test,2,assets\ed_instruments\mandolin_2.png,0,,2428.56,0.0,1.0
24102801,ed_instruments,8,test,3,assets\ed_instruments\chime_1.png,0,,2430.32,0.0,1.0
24102801,ed_instruments,8,test,4,assets\ed_instruments\violin_1.png,0,,2432.05,0.0,1.0
24102801,ed_instruments,8,test,5,assets\ed_instruments\accordian_2.png,0,,2433.81,0.0,1.0
24102801,ed_instruments,8,test,6,assets\ed_instruments\saxophone_2.png,0,,2435.55,0.0,1.0
24102801,ed_instruments,8,test,7,assets\ed_instruments\bagpipe_1.png,0,,2437.29,0.0,1.0
24102801,ed_instruments,8,test,8,assets\ed_instruments\tuba_1.png,0,,2439.02,0.0,1.0
24102801,ed_instruments,8,test,9,assets\ed_instruments\accoridan_3.png,0,,2440.76,0.0,1.0
24102801,ed_instruments,8,test,10,assets\ed_instruments\gong_2.png,0,,2442.5,0.0,1.0
24102801,ed_instruments,8,test,11,assets\ed_instruments\cello_2.png,0,,2444.24,0.0,1.0
24102801,ed_instruments,8,test,12,assets\ed_instruments\cello_2.png,1,0.649,2445.97,1.0,1.0
24102801,ed_instruments,8,test,13,assets\ed_instruments\saxophone_1.png,0,,2447.73,0.0,1.0
24102801,ed_instruments,8,test,14,assets\ed_instruments\cello_3.png,0,,2449.46,0.0,1.0
24102801,ed_instruments,8,test,15,assets\ed_instruments\kazoo_2.png,0,,2451.19,0.0,1.0
24102801,ed_instruments,8,test,16,assets\ed_instruments\gong_3.png,0,,2452.93,0.0,1.0
24102801,ed_instruments,8,test,17,assets\ed_instruments\gong_3.png,1,0.52,2454.67,1.0,1.0
24102801,ed_instruments,8,test,18,assets\ed_instruments\tuba_3.png,0,,2456.42,0.0,1.0
24102801,ed_instruments,8,test,19,assets\ed_instruments\bell_1.png,0,,2458.15,0.0,1.0
24102801,ed_instruments,8,test,20,assets\ed_instruments\tambourine_3.png,0,,2459.96,0.0,1.0
24102801,ed_instruments,9,test,0,assets\ed_instruments\harmonica_2.png,0,,2467.45,,
24102801,ed_instruments,9,test,1,assets\ed_instruments\violin_3.png,0,,2469.37,0.0,1.0
24102801,ed_instruments,9,test,2,assets\ed_instruments\chime_3.png,0,,2471.13,0.0,1.0
24102801,ed_instruments,9,test,3,assets\ed_instruments\banjo_1.png,0,,2472.87,0.0,1.0
24102801,ed_instruments,9,test,4,assets\ed_instruments\ukulele_1.png,0,,2474.6,0.0,1.0
24102801,ed_instruments,9,test,5,assets\ed_instruments\cymbal_2.png,0,,2476.38,0.0,1.0
24102801,ed_instruments,9,test,6,assets\ed_instruments\tuba_2.png,0,,2478.28,0.0,1.0
24102801,ed_instruments,9,test,7,assets\ed_instruments\flute_3.png,0,,2480.05,0.0,1.0
24102801,ed_instruments,9,test,8,assets\ed_instruments\violin_2.png,0,,2481.8,0.0,1.0
24102801,ed_instruments,9,test,9,assets\ed_instruments\kazoo_3.png,0,,2483.54,0.0,1.0
24102801,ed_instruments,9,test,10,assets\ed_instruments\chime_2.png,0,,2485.29,0.0,1.0
24102801,ed_instruments,9,test,11,assets\ed_instruments\chime_2.png,1,0.71,2487.04,1.0,1.0
24102801,ed_instruments,9,test,12,assets\ed_instruments\cymbal_3.png,0,,2488.87,0.0,1.0
24102801,ed_instruments,9,test,13,assets\ed_instruments\trumpet_2.png,0,,2490.63,0.0,1.0
24102801,ed_instruments,9,test,14,assets\ed_instruments\bagpipe_2.png,0,,2492.45,0.0,1.0
24102801,ed_instruments,9,test,15,assets\ed_instruments\kazoo_1.png,0,,2494.19,0.0,1.0
24102801,ed_instruments,9,test,16,assets\ed_instruments\piano_2.png,0,,2495.94,0.0,1.0
24102801,ed_instruments,9,test,17,assets\ed_instruments\banjo_2.png,0,,2497.7,0.0,1.0
24102801,ed_instruments,9,test,18,assets\ed_instruments\mandolin_1.png,0,,2499.45,0.0,1.0
24102801,ed_instruments,9,test,19,assets\ed_instruments\mandolin_1.png,1,0.72,2501.18,1.0,1.0
24102801,ed_instruments,9,test,20,assets\ed_instruments\harmonica_3.png,0,,2502.92,0.0,1.0
24102801,ed_instruments,10,test,0,assets\ed_instruments\accordian_1.png,0,,2510.45,,
24102801,ed_instruments,10,test,1,assets\ed_instruments\tambourine_2.png,0,,2512.21,0.0,1.0
24102801,ed_instruments,10,test,2,assets\ed_instruments\cello_1.png,0,,2514.0,0.0,1.0
24102801,ed_instruments,10,test,3,assets\ed_instruments\piano_1.png,0,,2515.77,0.0,1.0
24102801,ed_instruments,10,test,4,assets\ed_instruments\saxophone_3.png,0,,2517.53,0.0,1.0
24102801,ed_instruments,10,test,5,assets\ed_instruments\saxophone_3.png,1,0.69,2519.29,1.0,1.0
24102801,ed_instruments,10,test,6,assets\ed_instruments\bongo_2.png,0,,2521.04,0.0,1.0
24102801,ed_instruments,10,test,7,assets\ed_instruments\bongo_2.png,1,0.557,2522.77,1.0,1.0
24102801,ed_instruments,10,test,8,assets\ed_instruments\accoridan_3.png,0,,2524.52,0.0,1.0
24102801,ed_instruments,10,test,9,assets\ed_instruments\banjo_3.png,0,,2526.33,0.0,1.0
24102801,ed_instruments,10,test,10,assets\ed_instruments\harmonica_1.png,0,,2528.06,0.0,1.0
24102801,ed_instruments,10,test,11,assets\ed_instruments\piano_3.png,0,,2529.8,0.0,1.0
24102801,ed_instruments,10,test,12,assets\ed_instruments\tuba_3.png,0,,2531.55,0.0,1.0
24102801,ed_instruments,10,test,13,assets\ed_instruments\bagpipe_3.png,0,,2533.29,0.0,1.0
24102801,ed_instruments,10,test,14,assets\ed_instruments\cello_3.png,0,,2535.03,0.0,1.0
24102801,ed_instruments,10,test,15,assets\ed_instruments\gong_1.png,0,,2537.01,0.0,1.0
24102801,ed_instruments,10,test,16,assets\ed_instruments\bongo_3.png,0,,2538.75,0.0,1.0
24102801,ed_instruments,10,test,17,assets\ed_instruments\bongo_3.png,1,0.565,2540.48,1.0,1.0
24102801,ed_instruments,10,test,18,assets\ed_instruments\cymbal_1.png,0,,2542.39,0.0,1.0
24102801,ed_instruments,10,test,19,assets\ed_instruments\flute_1.png,0,,2544.12,0.0,1.0
24102801,ed_instruments,10,test,20,assets\ed_instruments\bongo_1.png,0,,2545.86,0.0,1.0
24102801,ed_vegetables,1,test,0,assets\ed_vegetables\gourd_2.png,0,,2572.05,,
24102801,ed_vegetables,1,test,1,assets\ed_vegetables\rhubarb_3.png,0,,2573.9,0.0,1.0
24102801,ed_vegetables,1,test,2,assets\ed_vegetables\brussels_sprouts_1.png,0,,2575.65,0.0,1.0
24102801,ed_vegetables,1,test,3,assets\ed_vegetables\artichoke_2.png,0,,2577.4,0.0,1.0
24102801,ed_vegetables,1,test,4,assets\ed_vegetables\onion_2.png,0,,2579.56,0.0,1.0
24102801,ed_vegetables,1,test,5,assets\ed_vegetables\corn_2.png,0,,2581.3,0.0,1.0
24102801,ed_vegetables,1,test,6,assets\ed_vegetables\bell_pepper_2.png,0,,2583.04,0.0,1.0
24102801,ed_vegetables,1,test,7,assets\ed_vegetables\gourd_1.png,0,,2585.09,0.0,1.0
24102801,ed_vegetables,1,test,8,assets\ed_vegetables\cauliflower_2.png,0,,2586.84,0.0,1.0
24102801,ed_vegetables,1,test,9,assets\ed_vegetables\jalapeno_3.png,0,,2588.58,0.0,1.0
24102801,ed_vegetables,1,test,10,assets\ed_vegetables\artichoke_3.png,0,,2590.32,0.0,1.0
24102801,ed_vegetables,1,test,11,assets\ed_vegetables\jalapeno_1.png,0,,2592.06,0.0,1.0
24102801,ed_vegetables,1,test,12,assets\ed_vegetables\bok_choy_3.png,0,,2593.82,0.0,1.0
24102801,ed_vegetables,1,test,13,assets\ed_vegetables\bok_choy_3.png,1,0.695,2595.56,1.0,1.0
24102801,ed_vegetables,1,test,14,assets\ed_vegetables\jalapeno_2.png,0,,2597.3,0.0,1.0
24102801,ed_vegetables,1,test,15,assets\ed_vegetables\cauliflower_1.png,0,,2599.05,0.0,1.0
24102801,ed_vegetables,1,test,16,assets\ed_vegetables\cucumber_3.png,0,,2600.82,0.0,1.0
24102801,ed_vegetables,1,test,17,assets\ed_vegetables\cucumber_3.png,1,0.73,2602.59,1.0,1.0
24102801,ed_vegetables,1,test,18,assets\ed_vegetables\sprouts_3.png,0,,2604.33,0.0,1.0
24102801,ed_vegetables,1,test,19,assets\ed_vegetables\beet_2.png,0,,2606.08,0.0,1.0
24102801,ed_vegetables,1,test,20,assets\ed_vegetables\arugula_2.png,0,,2607.83,0.0,1.0
24102801,ed_vegetables,2,test,0,assets\ed_vegetables\radish_2.png,0,,2615.2,,
24102801,ed_vegetables,2,test,1,assets\ed_vegetables\beet_3.png,0,,2616.93,0.0,1.0
24102801,ed_vegetables,2,test,2,assets\ed_vegetables\gourd_3.png,0,,2618.69,0.0,1.0
24102801,ed_vegetables,2,test,3,assets\ed_vegetables\okra_3.png,0,,2620.51,0.0,1.0
24102801,ed_vegetables,2,test,4,assets\ed_vegetables\cauliflower_3.png,0,,2622.25,0.0,1.0
24102801,ed_vegetables,2,test,5,assets\ed_vegetables\green_beans_2.png,0,,2624.0,0.0,1.0
24102801,ed_vegetables,2,test,6,assets\ed_vegetables\brussels_sprouts_3.png,0,,2625.75,0.0,1.0
24102801,ed_vegetables,2,test,7,assets\ed_vegetables\brussels_sprouts_3.png,1,0.791,2627.49,1.0,1.0
24102801,ed_vegetables,2,test,8,assets\ed_vegetables\onion_3.png,0,,2629.25,0.0,1.0
24102801,ed_vegetables,2,test,9,assets\ed_vegetables\bok_choy_1.png,0,,2631.01,0.0,1.0
24102801,ed_vegetables,2,test,10,assets\ed_vegetables\radish_3.png,0,,2632.76,0.0,1.0
24102801,ed_vegetables,2,test,11,assets\ed_vegetables\chive_3.png,0,,2634.53,0.0,1.0
24102801,ed_vegetables,2,test,12,assets\ed_vegetables\sprouts_2.png,0,,2636.27,0.0,1.0
24102801,ed_vegetables,2,test,13,assets\ed_vegetables\scallion_1.png,0,,2638.02,0.0,1.0
24102801,ed_vegetables,2,test,14,assets\ed_vegetables\sprouts_1.png,0,,2639.77,0.0,1.0
24102801,ed_vegetables,2,test,15,assets\ed_vegetables\cucumber_2.png,0,,2641.56,0.0,1.0
24102801,ed_vegetables,2,test,16,assets\ed_vegetables\brussels_sprouts_1.png,0,,2643.31,0.0,1.0
24102801,ed_vegetables,2,test,17,assets\ed_vegetables\brussels_sprouts_1.png,1,0.438,2645.04,1.0,1.0
24102801,ed_vegetables,2,test,18,assets\ed_vegetables\radish_1.png,0,,2646.78,0.0,1.0
24102801,ed_vegetables,2,test,19,assets\ed_vegetables\leek_1.png,0,,2648.89,0.0,1.0
24102801,ed_vegetables,2,test,20,assets\ed_vegetables\leek_1.png,1,0.743,2650.88,1.0,1.0
24102801,ed_vegetables,3,test,0,assets\ed_vegetables\cucumber_1.png,0,,2658.26,,
24102801,ed_vegetables,3,test,1,assets\ed_vegetables\scallion_2.png,0,,2660.0,0.0,1.0
24102801,ed_vegetables,3,test,2,assets\ed_vegetables\onion_1.png,0,,2661.74,0.0,1.0
24102801,ed_vegetables,3,test,3,assets\ed_vegetables\corn_3.png,0,,2663.5,0.0,1.0
24102801,ed_vegetables,3,test,4,assets\ed_vegetables\rhubarb_2.png,0,,2665.24,0.0,1.0
24102801,ed_vegetables,3,test,5,assets\ed_vegetables\beet_1.png,0,,2666.99,0.0,1.0
24102801,ed_vegetables,3,test,6,assets\ed_vegetables\beet_1.png,1,0.59,2668.74,1.0,1.0
24102801,ed_vegetables,3,test,7,assets\ed_vegetables\rhubarb_1.png,0,,2670.48,0.0,1.0
24102801,ed_vegetables,3,test,8,assets\ed_vegetables\chive_1.png,0,,2672.23,0.0,1.0
24102801,ed_vegetables,3,test,9,assets\ed_vegetables\chive_1.png,1,0.654,2673.97,1.0,1.0
24102801,ed_vegetables,3,test,10,assets\ed_vegetables\bell_pepper_2.png,0,,2675.71,0.0,1.0
24102801,ed_vegetables,3,test,11,assets\ed_vegetables\leek_3.png,0,,2677.45,0.0,1.0
24102801,ed_vegetables,3,test,12,assets\ed_vegetables\cucumber_3.png,0,,2679.22,0.0,1.0
24102801,ed_vegetables,3,test,13,assets\ed_vegetables\corn_2.png,0,,2680.96,0.0,1.0
24102801,ed_vegetables,3,test,14,assets\ed_vegetables\artichoke_2.png,0,,2682.7,0.0,1.0
24102801,ed_vegetables,3,test,15,assets\ed_vegetables\bok_choy_2.png,0,,2684.43,0.0,1.0
24102801,ed_vegetables,3,test,16,assets\ed_vegetables\radish_2.png,0,,2686.16,0.0,1.0
24102801,ed_vegetables,3,test,17,assets\ed_vegetables\jalapeno_2.png,0,,2687.9,0.0,1.0
24102801,ed_vegetables,3,test,18,assets\ed_vegetables\okra_3.png,0,,2689.7,0.0,1.0
24102801,ed_vegetables,3,test,19,assets\ed_vegetables\bell_pepper_3.png,0,,2691.44,0.0,1.0
24102801,ed_vegetables,3,test,20,assets\ed_vegetables\bell_pepper_1.png,0,,2693.18,0.0,1.0
24102801,ed_vegetables,4,test,0,assets\ed_vegetables\brussels_sprouts_2.png,0,,2701.19,,
24102801,ed_vegetables,4,test,1,assets\ed_vegetables\sprouts_3.png,0,,2702.92,0.0,1.0
24102801,ed_vegetables,4,test,2,assets\ed_vegetables\gourd_1.png,0,,2704.93,0.0,1.0
24102801,ed_vegetables,4,test,3,assets\ed_vegetables\radish_3.png,0,,2706.67,0.0,1.0
24102801,ed_vegetables,4,test,4,assets\ed_vegetables\artichoke_1.png,0,,2708.43,0.0,1.0
24102801,ed_vegetables,4,test,5,assets\ed_vegetables\jalapeno_3.png,0,,2710.16,0.0,1.0
24102801,ed_vegetables,4,test,6,assets\ed_vegetables\rhubarb_3.png,0,,2712.0,0.0,1.0
24102801,ed_vegetables,4,test,7,assets\ed_vegetables\gourd_2.png,0,,2713.74,0.0,1.0
24102801,ed_vegetables,4,test,8,assets\ed_vegetables\corn_1.png,0,,2715.49,0.0,1.0
24102801,ed_vegetables,4,test,9,assets\ed_vegetables\corn_1.png,1,0.736,2717.23,1.0,1.0
24102801,ed_vegetables,4,test,10,assets\ed_vegetables\scallion_1.png,0,,2718.97,0.0,1.0
24102801,ed_vegetables,4,test,11,assets\ed_vegetables\scallion_1.png,1,0.823,2720.7,1.0,1.0
24102801,ed_vegetables,4,test,12,assets\ed_vegetables\scallion_1.png,1,0.884,2722.43,1.0,1.0
24102801,ed_vegetables,4,test,13,assets\ed_vegetables\radish_1.png,0,,2724.16,0.0,1.0
24102801,ed_vegetables,4,test,14,assets\ed_vegetables\radish_1.png,1,0.796,2725.89,1.0,1.0
24102801,ed_vegetables,4,test,15,assets\ed_vegetables\arugula_1.png,0,,2727.65,0.0,1.0
24102801,ed_vegetables,4,test,16,assets\ed_vegetables\scallion_3.png,0,,2729.4,0.0,1.0
24102801,ed_vegetables,4,test,17,assets\ed_vegetables\cucumber_2.png,0,,2731.16,0.0,1.0
24102801,ed_vegetables,4,test,18,assets\ed_vegetables\sprouts_2.png,0,,2732.9,0.0,1.0
24102801,ed_vegetables,4,test,19,assets\ed_vegetables\beet_2.png,0,,2734.64,0.0,1.0
24102801,ed_vegetables,4,test,20,assets\ed_vegetables\arugula_2.png,0,,2736.38,0.0,1.0
24102801,ed_vegetables,5,test,0,assets\ed_vegetables\chive_3.png,0,,2743.84,,
24102801,ed_vegetables,5,test,1,assets\ed_vegetables\leek_2.png,0,,2745.59,0.0,1.0
24102801,ed_vegetables,5,test,2,assets\ed_vegetables\arugula_3.png,0,,2747.33,0.0,1.0
24102801,ed_vegetables,5,test,3,assets\ed_vegetables\cucumber_1.png,0,,2749.12,0.0,1.0
24102801,ed_vegetables,5,test,4,assets\ed_vegetables\rhubarb_1.png,0,,2750.85,0.0,1.0
24102801,ed_vegetables,5,test,5,assets\ed_vegetables\onion_1.png,0,,2752.58,0.0,1.0
24102801,ed_vegetables,5,test,6,assets\ed_vegetables\bok_choy_3.png,0,,2754.32,0.0,1.0
24102801,ed_vegetables,5,test,7,assets\ed_vegetables\bok_choy_3.png,1,0.601,2756.06,1.0,1.0
24102801,ed_vegetables,5,test,8,assets\ed_vegetables\cauliflower_3.png,0,,2757.8,0.0,1.0
24102801,ed_vegetables,5,test,9,assets\ed_vegetables\green_beans_1.png,0,,2759.56,0.0,1.0
24102801,ed_vegetables,5,test,10,assets\ed_vegetables\okra_1.png,0,,2761.48,0.0,1.0
24102801,ed_vegetables,5,test,11,assets\ed_vegetables\sprouts_1.png,0,,2763.22,0.0,1.0
24102801,ed_vegetables,5,test,12,assets\ed_vegetables\jalapeno_1.png,0,,2764.95,0.0,1.0
24102801,ed_vegetables,5,test,13,assets\ed_vegetables\leek_3.png,0,,2766.68,0.0,1.0
24102801,ed_vegetables,5,test,14,assets\ed_vegetables\artichoke_2.png,0,,2768.42,0.0,1.0
24102801,ed_vegetables,5,test,15,assets\ed_vegetables\onion_3.png,0,,2770.18,0.0,1.0
24102801,ed_vegetables,5,test,16,assets\ed_vegetables\cucumber_3.png,0,,2771.94,0.0,1.0
24102801,ed_vegetables,5,test,17,assets\ed_vegetables\gourd_1.png,0,,2773.98,0.0,1.0
24102801,ed_vegetables,5,test,18,assets\ed_vegetables\chive_1.png,0,,2775.72,0.0,1.0
24102801,ed_vegetables,5,test,19,assets\ed_vegetables\okra_3.png,0,,2777.54,0.0,1.0
24102801,ed_vegetables,5,test,20,assets\ed_vegetables\okra_2.png,0,,2779.41,0.0,1.0
24102801,ed_vegetables,6,test,0,assets\ed_vegetables\sprouts_3.png,0,,2786.71,,
24102801,ed_vegetables,6,test,1,assets\ed_vegetables\brussels_sprouts_2.png,0,,2788.45,0.0,1.0
24102801,ed_vegetables,6,test,2,assets\ed_vegetables\corn_3.png,0,,2790.2,0.0,1.0
24102801,ed_vegetables,6,test,3,assets\ed_vegetables\rhubarb_3.png,0,,2792.01,0.0,1.0
24102801,ed_vegetables,6,test,4,assets\ed_vegetables\gourd_2.png,0,,2793.74,0.0,1.0
24102801,ed_vegetables,6,test,5,assets\ed_vegetables\scallion_1.png,0,,2795.47,0.0,1.0
24102801,ed_vegetables,6,test,6,assets\ed_vegetables\brussels_sprouts_3.png,0,,2797.21,0.0,1.0
24102801,ed_vegetables,6,test,7,assets\ed_vegetables\onion_2.png,0,,2799.35,0.0,1.0
24102801,ed_vegetables,6,test,8,assets\ed_vegetables\green_beans_2.png,0,,2801.08,0.0,1.0
24102801,ed_vegetables,6,test,9,assets\ed_vegetables\radish_3.png,0,,2802.82,0.0,1.0
24102801,ed_vegetables,6,test,10,assets\ed_vegetables\beet_3.png,0,,2804.55,0.0,1.0
24102801,ed_vegetables,6,test,11,assets\ed_vegetables\bok_choy_1.png,0,,2806.28,0.0,1.0
24102801,ed_vegetables,6,test,12,assets\ed_vegetables\bok_choy_1.png,1,0.45,2808.01,1.0,1.0
24102801,ed_vegetables,6,test,13,assets\ed_vegetables\jalapeno_2.png,0,,2809.75,0.0,1.0
24102801,ed_vegetables,6,test,14,assets\ed_vegetables\leek_2.png,0,,2811.48,0.0,1.0
24102801,ed_vegetables,6,test,15,assets\ed_vegetables\sprouts_2.png,0,,2813.22,0.0,1.0
24102801,ed_vegetables,6,test,16,assets\ed_vegetables\arugula_3.png,0,,2814.96,0.0,1.0
24102801,ed_vegetables,6,test,17,assets\ed_vegetables\bell_pepper_3.png,0,,2816.69,0.0,1.0
24102801,ed_vegetables,6,test,18,assets\ed_vegetables\bell_pepper_3.png,1,0.471,2818.42,1.0,1.0
24102801,ed_vegetables,6,test,19,assets\ed_vegetables\bell_pepper_3.png,1,0.735,2820.15,1.0,1.0
24102801,ed_vegetables,6,test,20,assets\ed_vegetables\cucumber_1.png,0,,2821.91,0.0,1.0
24102801,ed_vegetables,7,test,0,assets\ed_vegetables\gourd_3.png,0,,2829.23,,
24102801,ed_vegetables,7,test,1,assets\ed_vegetables\chive_3.png,0,,2830.99,0.0,1.0
24102801,ed_vegetables,7,test,2,assets\ed_vegetables\beet_1.png,0,,2832.73,0.0,1.0
24102801,ed_vegetables,7,test,3,assets\ed_vegetables\brussels_sprouts_1.png,0,,2834.46,0.0,1.0
24102801,ed_vegetables,7,test,4,assets\ed_vegetables\corn_2.png,0,,2836.2,0.0,1.0
24102801,ed_vegetables,7,test,5,assets\ed_vegetables\green_beans_3.png,0,,2837.96,0.0,1.0
24102801,ed_vegetables,7,test,6,assets\ed_vegetables\bell_pepper_1.png,0,,2839.69,0.0,1.0
24102801,ed_vegetables,7,test,7,assets\ed_vegetables\rhubarb_1.png,0,,2841.42,0.0,1.0
24102801,ed_vegetables,7,test,8,assets\ed_vegetables\rhubarb_2.png,0,,2843.16,0.0,1.0
24102801,ed_vegetables,7,test,9,assets\ed_vegetables\beet_2.png,0,,2844.9,0.0,1.0
24102801,ed_vegetables,7,test,10,assets\ed_vegetables\onion_1.png,0,,2846.63,0.0,1.0
24102801,ed_vegetables,7,test,11,assets\ed_vegetables\chive_2.png,0,,2848.38,0.0,1.0
24102801,ed_vegetables,7,test,12,assets\ed_vegetables\sprouts_1.png,0,,2850.12,0.0,1.0
24102801,ed_vegetables,7,test,13,assets\ed_vegetables\cauliflower_1.png,0,,2851.86,0.0,1.0
24102801,ed_vegetables,7,test,14,assets\ed_vegetables\radish_1.png,0,,2853.59,0.0,1.0
24102801,ed_vegetables,7,test,15,assets\ed_vegetables\arugula_1.png,0,,2855.33,0.0,1.0
24102801,ed_vegetables,7,test,16,assets\ed_vegetables\okra_2.png,0,,2857.18,0.0,1.0
24102801,ed_vegetables,7,test,17,assets\ed_vegetables\cucumber_2.png,0,,2858.97,0.0,1.0
24102801,ed_vegetables,7,test,18,assets\ed_vegetables\okra_1.png,0,,2860.86,0.0,1.0
24102801,ed_vegetables,7,test,19,assets\ed_vegetables\bok_choy_3.png,0,,2862.6,0.0,1.0
24102801,ed_vegetables,7,test,20,assets\ed_vegetables\bok_choy_3.png,1,0.373,2864.34,1.0,1.0
24102801,ed_vegetables,8,test,0,assets\ed_vegetables\leek_3.png,0,,2871.77,,
24102801,ed_vegetables,8,test,1,assets\ed_vegetables\onion_2.png,0,,2873.91,0.0,1.0
24102801,ed_vegetables,8,test,2,assets\ed_vegetables\artichoke_1.png,0,,2875.66,0.0,1.0
